AccX,AccY,AccZ,GyroX,GyroY,GyroZ
-0.01,0.09,0.05,-0.01,0.09,0.05
-0.01,0.09,0.05,-0.01,0.09,0.05
-0.00,0.09,0.05,-0.01,0.09,0.05
-0.01,0.09,0.05,-0.01,0.08,0.05
-0.01,0.09,0.04,-0.01,0.09,0.05
-0.01,0.08,0.05,-0.01,0.09,0.05
-0.01,0.09,0.05,-0.01,0.09,0.05
-0.01,0.09,0.04,-0.01,0.09,0.04
-0.01,0.09,0.05,-0.01,0.09,0.05
-0.01,0.09,0.05,-0.00,0.09,0.04
-0.01,0.09,0.05,-0.01,0.08,0.05
-0.01,0.09,0.05,-0.01,0.09,0.05
-0.01,0.09,0.05,-0.00,0.09,0.05
-0.01,0.09,0.05,-0.01,0.09,0.05
-0.00,0.09,0.05,-0.01,0.09,0.05
-0.00,0.09,0.05,-0.01,0.09,0.05
-0.01,0.09,0.05,-0.01,0.08,0.04
-0.01,0.09,0.05,-0.01,0.09,0.05
-0.01,0.09,0.05,-0.01,0.09,0.05
-0.01,0.09,0.05,-0.01,0.09,0.05
-0.01,0.09,0.05,-0.01,0.08,0.05
-0.01,0.09,0.05,-0.00,0.09,0.05
-0.01,0.09,0.05,-0.01,0.09,0.05
-0.00,0.09,0.05,-0.00,0.09,0.05
-0.01,0.09,0.05,-0.01,0.09,0.05
-0.00,0.09,0.05,-0.01,0.09,0.05
-0.00,0.09,0.05,-0.01,0.09,0.05
-0.01,0.09,0.05,-0.00,0.09,0.05
-0.00,0.09,0.05,-0.01,0.09,0.05
-0.01,0.09,0.05,-0.01,0.09,0.05
-0.00,0.09,0.05,-0.01,0.09,0.04
-0.01,0.09,0.05,-0.01,0.09,0.05
-0.01,0.09,0.05,-0.01,0.09,0.05
-0.01,0.08,0.05,-0.01,0.08,0.05
-0.01,0.09,0.05,-0.01,0.09,0.05
-0.01,0.09,0.05,-0.01,0.09,0.05
-0.01,0.09,0.05,-0.01,0.09,0.05
-0.01,0.09,0.05,-0.01,0.09,0.05
-0.01,0.09,0.05,-0.01,0.09,0.04
-0.00,0.09,0.05,-0.01,0.09,0.05
-0.01,0.08,0.05,-0.01,0.09,0.05
-0.01,0.09,0.05,-0.01,0.09,0.05
-0.00,0.09,0.05,-0.01,0.09,0.05
-0.00,0.09,0.05,-0.00,0.09,0.05
-0.01,0.09,0.05,-0.01,0.09,0.05
-0.01,0.09,0.05,-0.01,0.09,0.05
-0.01,0.09,0.05,-0.00,0.09,0.05
-0.01,0.09,0.05,-0.01,0.09,0.05
-0.01,0.09,0.05,-0.01,0.09,0.05
-0.00,0.09,0.05,-0.01,0.09,0.05
-0.01,0.09,0.05,-0.01,0.09,0.05
-0.01,0.09,0.05,-0.01,0.09,0.05
-0.01,0.09,0.05,-0.01,0.09,0.05
-0.01,0.08,0.05,-0.01,0.08,0.05
-0.01,0.09,0.05,-0.01,0.09,0.05
-0.01,0.09,0.05,-0.01,0.09,0.05
-0.01,0.09,0.04,-0.01,0.09,0.05
-0.01,0.09,0.05,-0.01,0.09,0.05
-0.01,0.08,0.05,-0.00,0.09,0.05
-0.01,0.09,0.05,-0.00,0.09,0.05
-0.01,0.09,0.05,-0.01,0.09,0.05
-0.01,0.09,0.05,-0.01,0.09,0.05
-0.01,0.09,0.05,-0.01,0.09,0.05
-0.01,0.09,0.05,-0.01,0.09,0.05
-0.01,0.09,0.05,-0.01,0.09,0.05
-0.01,0.09,0.05,-0.01,0.09,0.05
-0.01,0.09,0.05,-0.01,0.09,0.05
-0.01,0.09,0.05,-0.01,0.09,0.05
-0.01,0.09,0.05,-0.01,0.09,0.05
-0.01,0.09,0.05,-0.01,0.09,0.05
-0.01,0.09,0.05,-0.00,0.09,0.05
-0.01,0.08,0.05,-0.01,0.09,0.04
-0.01,0.09,0.05,-0.01,0.09,0.05
-0.01,0.09,0.05,-0.01,0.09,0.05
-0.01,0.09,0.05,-0.01,0.09,0.05
-0.01,0.09,0.05,-0.01,0.09,0.05
-0.00,0.09,0.05,-0.01,0.09,0.05
-0.01,0.09,0.05,-0.01,0.09,0.05
-0.00,0.09,0.05,-0.01,0.09,0.05
-0.00,0.09,0.05,-0.01,0.09,0.04
-0.01,0.09,0.05,-0.01,0.09,0.05
-0.01,0.09,0.05,-0.01,0.09,0.05
-0.01,0.09,0.05,-0.01,0.09,0.05
-0.01,0.09,0.05,-0.01,0.08,0.05
-0.01,0.09,0.05,-0.00,0.09,0.05
-0.01,0.09,0.05,-0.01,0.09,0.05
-0.01,0.09,0.05,-0.01,0.09,0.05
-0.01,0.09,0.05,-0.00,0.09,0.05
-0.01,0.09,0.05,-0.00,0.08,0.05
-0.01,0.09,0.05,-0.00,0.09,0.05
-0.00,0.09,0.05,-0.01,0.09,0.05
-0.01,0.09,0.05,-0.01,0.09,0.04
-0.01,0.09,0.05,-0.01,0.09,0.05
-0.01,0.09,0.05,-0.01,0.09,0.05
-0.01,0.09,0.05,-0.01,0.09,0.05
-0.01,0.10,0.05,-0.01,0.09,0.05
-0.00,0.08,0.05,-0.01,0.09,0.05
-0.01,0.09,0.05,-0.01,0.09,0.04
-0.01,0.09,0.05,-0.01,0.09,0.05
-0.01,0.09,0.05,-0.01,0.09,0.05
-0.01,0.09,0.05,-0.01,0.09,0.05
-0.01,0.09,0.05,-0.01,0.09,0.05
-0.01,0.09,0.05,-0.01,0.09,0.05
-0.01,0.09,0.05,-0.01,0.09,0.04
-0.01,0.09,0.05,-0.01,0.09,0.05
-0.01,0.09,0.05,-0.00,0.09,0.05
-0.01,0.09,0.05,-0.01,0.09,0.05
-0.01,0.09,0.05,-0.01,0.09,0.05
-0.01,0.09,0.05,-0.01,0.09,0.05
-0.01,0.08,0.05,-0.01,0.09,0.05
-0.01,0.09,0.05,-0.01,0.09,0.05
-0.01,0.09,0.05,-0.00,0.09,0.05
-0.00,0.09,0.05,-0.01,0.08,0.05
-0.01,0.09,0.05,-0.01,0.09,0.05
-0.01,0.09,0.05,-0.01,0.09,0.05
-0.01,0.08,0.05,-0.01,0.09,0.04
-0.01,0.09,0.05,-0.01,0.09,0.05
-0.01,0.09,0.04,-0.01,0.09,0.05
-0.00,0.08,0.04,-0.00,0.09,0.04
-0.01,0.09,0.05,-0.01,0.09,0.05
-0.01,0.09,0.05,-0.01,0.09,0.05
-0.01,0.09,0.05,-0.01,0.09,0.05
-0.01,0.09,0.05,-0.00,0.09,0.05
-0.00,0.09,0.05,-0.00,0.09,0.05
-0.00,0.09,0.05,-0.00,0.09,0.05
-0.01,0.09,0.05,-0.01,0.09,0.05
-0.01,0.09,0.05,-0.01,0.09,0.05
-0.01,0.09,0.05,-0.00,0.09,0.05
-0.01,0.09,0.05,-0.01,0.09,0.05
-0.01,0.09,0.05,-0.01,0.09,0.05
-0.01,0.09,0.05,-0.01,0.09,0.05
-0.01,0.09,0.04,-0.01,0.09,0.04
-0.00,0.09,0.04,-0.01,0.08,0.05
-0.01,0.09,0.05,-0.01,0.09,0.05
-0.01,0.09,0.05,-0.01,0.09,0.05
-0.01,0.08,0.05,-0.01,0.08,0.05
-0.01,0.09,0.05,-0.00,0.09,0.05
-0.00,0.09,0.05,-0.01,0.09,0.05
-0.00,0.09,0.05,-0.01,0.09,0.05
-0.01,0.09,0.05,-0.01,0.09,0.05
-0.01,0.09,0.05,-0.01,0.09,0.05
-0.01,0.09,0.05,-0.01,0.09,0.05
-0.01,0.09,0.05,-0.01,0.08,0.04
-0.01,0.08,0.05,-0.01,0.09,0.05
-0.01,0.09,0.05,-0.01,0.09,0.05
-0.01,0.09,0.05,-0.01,0.09,0.05
-0.01,0.09,0.05,-0.01,0.09,0.05
-0.01,0.09,0.05,-0.01,0.09,0.05
-0.01,0.09,0.04,-0.01,0.09,0.05
-0.01,0.09,0.05,-0.01,0.09,0.05
-0.01,0.09,0.05,-0.01,0.09,0.05
-0.00,0.09,0.05,-0.01,0.09,0.05
-0.01,0.08,0.05,-0.01,0.09,0.05
-0.01,0.09,0.05,-0.01,0.09,0.05
-0.01,0.09,0.05,-0.01,0.09,0.05
-0.01,0.09,0.04,-0.01,0.09,0.05
-0.00,0.09,0.05,-0.01,0.09,0.05
-0.01,0.09,0.05,-0.01,0.09,0.05
-0.01,0.09,0.05,-0.01,0.09,0.05
-0.01,0.09,0.05,-0.01,0.09,0.05
-0.01,0.09,0.05,-0.01,0.09,0.05
-0.00,0.09,0.05,-0.00,0.09,0.05
-0.01,0.09,0.05,-0.01,0.09,0.05
-0.01,0.09,0.05,-0.01,0.09,0.05
-0.01,0.09,0.04,-0.01,0.09,0.04
-0.01,0.09,0.05,-0.00,0.09,0.04
-0.01,0.09,0.04,-0.01,0.09,0.05
-0.00,0.09,0.05,-0.00,0.09,0.05
-0.01,0.09,0.05,-0.00,0.09,0.05
-0.00,0.09,0.05,-0.01,0.09,0.05
-0.01,0.09,0.05,-0.01,0.09,0.05
-0.01,0.09,0.05,-0.01,0.09,0.05
-0.01,0.09,0.05,-0.01,0.09,0.05
-0.01,0.09,0.05,-0.01,0.09,0.05
-0.01,0.08,0.05,-0.01,0.09,0.05
-0.01,0.09,0.05,-0.01,0.09,0.05
-0.01,0.09,0.05,-0.00,0.09,0.05
-0.02,0.08,0.05,-0.01,0.08,0.04
-0.02,0.08,0.04,-0.02,0.07,0.04
-0.01,0.08,0.04,-0.02,0.09,0.05
-0.01,0.10,0.04,-0.01,0.11,0.05
-0.00,0.12,0.05,0.00,0.11,0.04
0.00,0.08,0.05,0.01,0.07,0.05
0.01,0.06,0.05,0.01,0.06,0.05
0.01,0.06,0.05,0.01,0.08,0.05
0.00,0.09,0.05,-0.00,0.10,0.06
-0.01,0.11,0.05,-0.02,0.11,0.05
-0.02,0.11,0.05,-0.02,0.10,0.05
-0.01,0.08,0.05,-0.01,0.07,0.05
-0.01,0.06,0.04,-0.01,0.07,0.05
-0.01,0.07,0.04,-0.02,0.08,0.04
-0.02,0.10,0.05,-0.02,0.11,0.05
-0.02,0.12,0.04,-0.02,0.11,0.04
-0.02,0.09,0.04,-0.01,0.08,0.05
-0.01,0.08,0.05,-0.00,0.08,0.05
-0.00,0.08,0.05,-0.01,0.09,0.05
-0.01,0.10,0.05,-0.01,0.10,0.05
-0.01,0.10,0.05,-0.01,0.09,0.04
-0.01,0.08,0.04,-0.01,0.08,0.05
-0.01,0.09,0.05,-0.01,0.08,0.05
-0.01,0.09,0.05,-0.01,0.09,0.05
-0.01,0.09,0.05,-0.01,0.09,0.05
-0.01,0.09,0.05,-0.01,0.10,0.05
-0.01,0.09,0.05,-0.01,0.08,0.04
-0.01,0.08,0.04,-0.01,0.08,0.04
-0.01,0.09,0.04,-0.01,0.09,0.04
-0.01,0.09,0.04,-0.01,0.09,0.04
-0.01,0.09,0.04,-0.01,0.09,0.05
-0.01,0.08,0.05,-0.01,0.08,0.05
-0.01,0.09,0.05,-0.01,0.09,0.05
-0.00,0.09,0.05,-0.01,0.09,0.05
-0.00,0.09,0.05,-0.00,0.09,0.05
-0.00,0.09,0.05,-0.00,0.09,0.05
-0.00,0.09,0.05,-0.00,0.09,0.05
-0.00,0.09,0.05,-0.00,0.09,0.05
-0.00,0.09,0.05,0.00,0.09,0.04
0.00,0.09,0.05,-0.00,0.09,0.05
-0.00,0.09,0.05,-0.01,0.09,0.04
0.00,0.09,0.04,-0.01,0.09,0.05
-0.00,0.09,0.05,-0.01,0.09,0.04
-0.01,0.09,0.05,-0.01,0.10,0.05
-0.00,0.10,0.05,-0.00,0.09,0.05
0.00,0.09,0.05,0.00,0.09,0.05
-0.00,0.09,0.05,0.00,0.09,0.05
0.00,0.10,0.05,0.00,0.09,0.05
0.01,0.09,0.05,0.01,0.09,0.05
0.00,0.09,0.05,0.01,0.10,0.05
0.02,0.11,0.06,0.02,0.09,0.06
0.02,0.09,0.05,0.02,0.09,0.05
0.02,0.10,0.05,0.01,0.09,0.04
0.01,0.08,0.05,0.00,0.08,0.04
-0.00,0.08,0.04,-0.00,0.08,0.04
-0.01,0.10,0.04,-0.01,0.10,0.04
-0.01,0.11,0.05,-0.01,0.11,0.05
-0.01,0.10,0.05,-0.01,0.09,0.05
-0.01,0.08,0.05,-0.00,0.08,0.05
-0.00,0.08,0.05,0.00,0.09,0.05
0.00,0.08,0.05,0.00,0.09,0.05
0.00,0.09,0.05,0.00,0.09,0.05
0.00,0.09,0.05,0.00,0.10,0.05
0.00,0.09,0.05,0.00,0.09,0.05
0.01,0.08,0.05,0.00,0.08,0.05
0.00,0.09,0.05,0.00,0.09,0.04
-0.00,0.09,0.05,-0.00,0.09,0.05
-0.01,0.09,0.05,-0.00,0.09,0.05
-0.00,0.09,0.05,-0.01,0.08,0.04
-0.01,0.08,0.05,-0.01,0.08,0.04
-0.01,0.07,0.05,-0.01,0.07,0.04
-0.01,0.07,0.04,-0.02,0.08,0.04
-0.03,0.08,0.04,-0.03,0.08,0.05
-0.02,0.09,0.05,-0.02,0.09,0.05
-0.03,0.09,0.05,-0.02,0.09,0.05
-0.02,0.09,0.05,-0.01,0.08,0.05
-0.00,0.07,0.05,0.00,0.07,0.05
0.01,0.07,0.05,0.01,0.08,0.05
0.01,0.08,0.05,0.01,0.09,0.05
0.01,0.09,0.05,0.00,0.10,0.04
-0.00,0.09,0.04,-0.00,0.09,0.04
-0.01,0.09,0.04,-0.01,0.09,0.04
-0.01,0.09,0.05,-0.01,0.09,0.04
-0.01,0.09,0.05,-0.01,0.08,0.05
-0.01,0.09,0.05,-0.01,0.09,0.05
-0.01,0.09,0.05,-0.01,0.09,0.05
-0.01,0.09,0.04,-0.01,0.09,0.05
-0.01,0.09,0.05,-0.01,0.08,0.04
-0.01,0.09,0.04,-0.01,0.08,0.04
-0.01,0.08,0.05,-0.01,0.08,0.05
-0.01,0.08,0.05,-0.01,0.08,0.05
-0.01,0.09,0.04,-0.01,0.09,0.04
-0.01,0.09,0.04,-0.01,0.09,0.04
-0.01,0.09,0.05,-0.00,0.09,0.04
-0.00,0.09,0.05,-0.00,0.09,0.05
0.00,0.09,0.05,0.00,0.09,0.05
0.00,0.09,0.04,0.00,0.09,0.05
0.00,0.09,0.04,0.00,0.09,0.05
0.00,0.09,0.05,0.00,0.09,0.04
0.00,0.09,0.05,-0.00,0.09,0.05
-0.00,0.09,0.05,-0.00,0.09,0.05
-0.00,0.09,0.05,-0.01,0.09,0.05
-0.00,0.09,0.05,-0.00,0.09,0.05
-0.00,0.09,0.05,-0.01,0.09,0.05
-0.01,0.09,0.04,-0.01,0.09,0.04
-0.01,0.09,0.04,-0.01,0.09,0.05
-0.00,0.09,0.04,-0.00,0.09,0.04
-0.00,0.09,0.05,-0.00,0.09,0.05
-0.01,0.10,0.04,-0.01,0.10,0.04
-0.00,0.10,0.05,-0.00,0.10,0.05
-0.00,0.09,0.05,0.00,0.09,0.05
-0.00,0.09,0.05,0.00,0.09,0.05
-0.00,0.09,0.05,-0.00,0.09,0.05
0.00,0.09,0.05,-0.00,0.09,0.05
-0.01,0.10,0.05,-0.01,0.10,0.05
-0.01,0.10,0.05,-0.01,0.09,0.05
-0.01,0.09,0.05,-0.01,0.09,0.05
-0.01,0.09,0.05,-0.01,0.09,0.05
-0.01,0.09,0.05,-0.01,0.09,0.05
-0.01,0.09,0.05,-0.01,0.09,0.05
-0.01,0.09,0.05,-0.01,0.08,0.05
-0.01,0.09,0.05,-0.01,0.09,0.04
-0.01,0.09,0.04,-0.01,0.09,0.04
-0.01,0.09,0.04,-0.01,0.09,0.04
-0.01,0.09,0.04,-0.01,0.09,0.04
-0.01,0.08,0.04,-0.02,0.09,0.04
-0.01,0.08,0.04,-0.01,0.09,0.04
-0.01,0.09,0.04,-0.01,0.09,0.04
-0.01,0.09,0.05,-0.01,0.09,0.05
-0.01,0.09,0.05,-0.01,0.09,0.05
-0.01,0.09,0.05,-0.01,0.09,0.05
-0.00,0.09,0.05,-0.00,0.09,0.05
0.00,0.09,0.06,-0.00,0.09,0.05
0.00,0.09,0.05,-0.00,0.09,0.05
-0.00,0.09,0.05,0.00,0.09,0.05
-0.00,0.09,0.05,-0.00,0.09,0.05
-0.01,0.09,0.05,-0.01,0.09,0.05
-0.01,0.09,0.04,-0.01,0.09,0.05
-0.01,0.09,0.05,-0.01,0.09,0.04
-0.01,0.09,0.05,-0.01,0.09,0.05
-0.01,0.09,0.04,-0.01,0.09,0.04
-0.01,0.09,0.05,-0.01,0.09,0.04
-0.01,0.09,0.04,-0.01,0.09,0.05
-0.01,0.09,0.05,-0.01,0.09,0.05
-0.01,0.09,0.04,-0.01,0.09,0.05
-0.01,0.09,0.05,-0.01,0.09,0.05
-0.01,0.09,0.05,-0.01,0.09,0.05
-0.01,0.09,0.04,-0.01,0.09,0.05
-0.01,0.09,0.05,-0.01,0.09,0.05
-0.01,0.09,0.05,-0.01,0.09,0.05
-0.01,0.09,0.05,-0.01,0.09,0.05
-0.01,0.09,0.05,-0.01,0.09,0.05
-0.00,0.09,0.05,-0.00,0.09,0.04
-0.00,0.09,0.05,-0.00,0.09,0.05
-0.01,0.08,0.05,-0.00,0.09,0.04
-0.01,0.09,0.04,-0.01,0.09,0.05
-0.01,0.09,0.05,-0.01,0.09,0.04
-0.01,0.09,0.05,-0.01,0.08,0.05
-0.01,0.08,0.05,-0.01,0.08,0.05
-0.01,0.09,0.04,-0.01,0.09,0.05
-0.01,0.09,0.05,-0.01,0.09,0.05
-0.01,0.09,0.05,-0.01,0.09,0.05
-0.01,0.09,0.05,-0.01,0.08,0.05
-0.01,0.08,0.04,-0.01,0.08,0.05
-0.01,0.08,0.05,-0.01,0.09,0.04
-0.01,0.09,0.05,-0.01,0.09,0.04
-0.01,0.09,0.05,-0.01,0.09,0.05
-0.01,0.09,0.05,-0.01,0.09,0.05
-0.01,0.09,0.05,-0.01,0.09,0.05
-0.01,0.09,0.05,-0.00,0.09,0.05
-0.01,0.09,0.05,-0.01,0.09,0.05
-0.01,0.09,0.05,-0.01,0.09,0.05
-0.00,0.09,0.05,-0.00,0.09,0.05
-0.00,0.09,0.05,-0.01,0.09,0.05
-0.01,0.09,0.05,-0.01,0.09,0.05
-0.00,0.09,0.05,-0.01,0.09,0.05
-0.01,0.09,0.05,-0.01,0.09,0.05
-0.01,0.09,0.05,-0.01,0.09,0.05
-0.01,0.09,0.05,-0.01,0.09,0.05
-0.01,0.09,0.05,-0.01,0.09,0.05
-0.00,0.09,0.05,-0.01,0.09,0.05
-0.00,0.09,0.05,-0.01,0.09,0.04
-0.01,0.09,0.04,-0.01,0.09,0.04
-0.01,0.09,0.04,-0.01,0.09,0.04
-0.01,0.09,0.04,-0.01,0.09,0.04
-0.01,0.09,0.04,-0.01,0.09,0.04
-0.01,0.09,0.04,-0.01,0.09,0.04
-0.02,0.09,0.04,-0.01,0.10,0.04
-0.01,0.09,0.04,-0.01,0.08,0.04
-0.01,0.09,0.05,-0.01,0.09,0.04
-0.01,0.09,0.05,-0.01,0.09,0.05
-0.01,0.09,0.05,-0.01,0.09,0.05
-0.01,0.08,0.05,-0.00,0.09,0.06
-0.00,0.09,0.05,-0.00,0.08,0.06
-0.00,0.09,0.06,-0.00,0.09,0.06
-0.01,0.09,0.06,-0.01,0.09,0.05
-0.00,0.09,0.06,-0.00,0.09,0.05
-0.00,0.09,0.05,-0.00,0.09,0.05
-0.01,0.08,0.05,-0.01,0.09,0.05
-0.01,0.09,0.05,-0.01,0.09,0.05
-0.01,0.09,0.05,-0.01,0.09,0.04
-0.01,0.09,0.05,-0.01,0.09,0.04
-0.01,0.09,0.04,-0.01,0.09,0.04
-0.01,0.09,0.04,-0.01,0.09,0.04
-0.01,0.09,0.04,-0.01,0.09,0.04
-0.01,0.09,0.05,-0.01,0.09,0.04
-0.01,0.08,0.05,-0.01,0.09,0.04
-0.01,0.09,0.05,-0.01,0.09,0.05
-0.01,0.09,0.05,-0.01,0.09,0.05
-0.01,0.09,0.05,-0.01,0.09,0.05
-0.01,0.09,0.05,-0.01,0.09,0.05
-0.01,0.09,0.06,-0.01,0.09,0.05
-0.01,0.09,0.05,-0.01,0.09,0.05
-0.01,0.08,0.05,-0.00,0.09,0.05
-0.01,0.09,0.05,-0.01,0.09,0.05
-0.01,0.09,0.05,-0.01,0.09,0.04
-0.01,0.09,0.05,-0.01,0.09,0.04
-0.00,0.09,0.05,-0.01,0.09,0.04
-0.00,0.09,0.04,-0.01,0.09,0.04
-0.01,0.09,0.04,-0.01,0.09,0.04
-0.01,0.09,0.05,-0.00,0.09,0.04
-0.00,0.09,0.05,-0.01,0.09,0.05
-0.01,0.09,0.05,-0.00,0.09,0.05
-0.00,0.09,0.05,-0.01,0.09,0.05
-0.00,0.09,0.05,-0.00,0.09,0.05
-0.00,0.09,0.05,-0.01,0.08,0.05
-0.01,0.09,0.05,-0.00,0.09,0.05
-0.01,0.08,0.05,-0.01,0.09,0.05
-0.01,0.09,0.05,-0.00,0.09,0.05
-0.01,0.09,0.05,-0.01,0.09,0.05
-0.01,0.09,0.05,-0.01,0.09,0.05
-0.01,0.09,0.05,-0.01,0.09,0.05
-0.01,0.09,0.05,-0.01,0.09,0.05
-0.01,0.09,0.04,-0.01,0.09,0.05
-0.01,0.09,0.05,-0.01,0.09,0.05
-0.00,0.09,0.04,-0.01,0.09,0.05
-0.01,0.09,0.05,-0.00,0.09,0.05
-0.01,0.09,0.04,-0.01,0.09,0.05
-0.00,0.09,0.05,-0.01,0.09,0.05
-0.00,0.09,0.05,-0.01,0.09,0.05
-0.01,0.09,0.05,-0.01,0.09,0.05
-0.01,0.09,0.05,-0.01,0.09,0.05
-0.01,0.09,0.05,-0.00,0.09,0.05
-0.01,0.09,0.05,-0.01,0.09,0.05
-0.01,0.09,0.05,-0.01,0.09,0.05
-0.01,0.09,0.04,-0.01,0.09,0.05
-0.01,0.09,0.05,-0.01,0.09,0.05
-0.01,0.09,0.04,-0.01,0.09,0.05
-0.01,0.09,0.05,-0.01,0.09,0.04
-0.01,0.09,0.04,-0.01,0.09,0.04
-0.01,0.09,0.05,-0.01,0.09,0.05
-0.01,0.09,0.05,-0.01,0.09,0.05
-0.01,0.09,0.05,-0.01,0.09,0.05
-0.01,0.09,0.05,-0.01,0.09,0.05
-0.01,0.09,0.05,-0.01,0.09,0.05
-0.01,0.09,0.05,-0.01,0.09,0.05
-0.01,0.09,0.05,-0.01,0.09,0.05
-0.01,0.09,0.05,-0.00,0.09,0.05
-0.01,0.09,0.05,-0.01,0.09,0.05
-0.01,0.09,0.05,-0.01,0.09,0.05
-0.01,0.09,0.04,-0.01,0.09,0.05
-0.01,0.09,0.05,-0.01,0.09,0.05
-0.01,0.09,0.05,-0.01,0.09,0.05
-0.01,0.09,0.05,-0.01,0.09,0.05
-0.01,0.09,0.05,-0.00,0.09,0.05
-0.01,0.09,0.05,-0.01,0.09,0.05
-0.01,0.09,0.05,-0.01,0.09,0.05
-0.01,0.09,0.05,-0.00,0.09,0.04
-0.01,0.09,0.05,-0.01,0.09,0.05
-0.01,0.09,0.05,-0.01,0.09,0.05
-0.01,0.09,0.04,-0.01,0.09,0.05
-0.01,0.09,0.05,-0.01,0.09,0.05
-0.01,0.09,0.04,-0.01,0.09,0.05
-0.01,0.09,0.05,-0.01,0.09,0.05
-0.01,0.09,0.05,-0.01,0.09,0.04
-0.01,0.09,0.05,-0.01,0.09,0.05
-0.00,0.09,0.05,-0.01,0.09,0.05
-0.01,0.09,0.05,-0.01,0.09,0.05
-0.00,0.09,0.05,-0.01,0.09,0.05
-0.01,0.09,0.05,-0.01,0.09,0.05
-0.01,0.09,0.05,-0.01,0.09,0.05
-0.01,0.09,0.05,-0.01,0.09,0.05
-0.01,0.09,0.05,-0.01,0.09,0.05
-0.01,0.09,0.04,-0.01,0.09,0.05
-0.01,0.09,0.05,-0.01,0.09,0.05
-0.01,0.09,0.05,-0.01,0.09,0.05
-0.01,0.09,0.05,-0.01,0.09,0.04
-0.00,0.09,0.05,-0.00,0.09,0.05
-0.01,0.09,0.05,-0.01,0.09,0.05
-0.01,0.09,0.05,-0.01,0.09,0.05
-0.01,0.09,0.05,-0.01,0.09,0.04
-0.01,0.09,0.04,-0.01,0.09,0.05
-0.01,0.09,0.05,-0.01,0.09,0.05
-0.01,0.09,0.05,-0.01,0.09,0.05
-0.01,0.09,0.05,-0.01,0.09,0.05
-0.01,0.09,0.04,-0.01,0.09,0.05
-0.01,0.09,0.05,-0.01,0.09,0.05
-0.01,0.09,0.05,-0.01,0.09,0.05
-0.01,0.09,0.05,-0.01,0.09,0.05
-0.01,0.09,0.05,-0.01,0.09,0.05
-0.01,0.09,0.05,-0.01,0.09,0.05
-0.01,0.09,0.05,-0.01,0.09,0.05
-0.00,0.09,0.05,-0.00,0.09,0.05
-0.01,0.09,0.05,-0.01,0.09,0.05
-0.01,0.09,0.04,-0.01,0.09,0.05
-0.01,0.09,0.04,-0.01,0.08,0.04
-0.01,0.08,0.04,-0.01,0.09,0.05
-0.01,0.10,0.05,-0.01,0.09,0.04
-0.01,0.08,0.05,-0.01,0.08,0.04
-0.01,0.08,0.04,-0.01,0.09,0.04
-0.01,0.08,0.04,-0.01,0.09,0.04
-0.01,0.09,0.04,-0.01,0.09,0.04
-0.01,0.08,0.04,-0.01,0.08,0.04
-0.00,0.08,0.04,-0.01,0.08,0.04
-0.00,0.08,0.04,0.00,0.08,0.04
0.00,0.09,0.05,0.00,0.09,0.05
0.00,0.09,0.05,0.01,0.09,0.05
0.01,0.08,0.05,0.01,0.08,0.05
0.01,0.08,0.05,0.01,0.08,0.05
0.01,0.09,0.05,0.01,0.09,0.05
0.01,0.09,0.05,0.00,0.09,0.05
0.00,0.09,0.05,0.00,0.09,0.05
-0.00,0.09,0.05,-0.00,0.09,0.05
-0.01,0.09,0.05,-0.01,0.09,0.05
-0.01,0.09,0.05,-0.02,0.09,0.05
-0.01,0.09,0.05,-0.01,0.09,0.05
-0.01,0.08,0.05,-0.01,0.09,0.05
-0.01,0.08,0.05,-0.01,0.08,0.05
-0.01,0.08,0.05,-0.00,0.09,0.05
-0.01,0.09,0.05,-0.00,0.09,0.05
0.00,0.09,0.05,0.00,0.09,0.05
0.00,0.09,0.04,-0.00,0.09,0.05
-0.00,0.09,0.05,-0.00,0.09,0.04
-0.01,0.09,0.05,-0.00,0.09,0.04
-0.01,0.09,0.04,-0.01,0.09,0.04
-0.01,0.09,0.04,-0.01,0.09,0.04
-0.01,0.09,0.04,-0.01,0.09,0.04
-0.01,0.09,0.05,-0.01,0.09,0.04
-0.01,0.09,0.04,-0.01,0.09,0.04
-0.01,0.09,0.05,-0.01,0.09,0.04
-0.01,0.09,0.04,-0.01,0.08,0.05
-0.01,0.09,0.05,-0.00,0.09,0.05
-0.01,0.09,0.05,-0.01,0.09,0.04
-0.01,0.09,0.04,-0.01,0.09,0.05
-0.00,0.09,0.05,-0.00,0.09,0.05
-0.00,0.09,0.04,0.00,0.09,0.05
0.00,0.09,0.05,0.01,0.09,0.05
0.01,0.09,0.05,0.01,0.09,0.05
0.01,0.09,0.05,0.01,0.09,0.05
0.01,0.09,0.05,0.01,0.09,0.05
0.01,0.09,0.05,0.01,0.09,0.05
0.01,0.09,0.05,0.01,0.09,0.05
0.00,0.09,0.05,0.00,0.09,0.05
0.00,0.09,0.05,-0.00,0.09,0.05
-0.01,0.09,0.05,-0.01,0.09,0.05
-0.01,0.09,0.05,-0.01,0.09,0.05
-0.01,0.09,0.05,-0.01,0.09,0.05
-0.01,0.09,0.05,-0.01,0.09,0.05
-0.01,0.09,0.05,-0.01,0.09,0.05
-0.01,0.09,0.05,-0.01,0.09,0.05
-0.01,0.08,0.05,-0.02,0.08,0.05
-0.01,0.08,0.05,-0.01,0.08,0.05
-0.01,0.09,0.05,-0.01,0.09,0.05
-0.01,0.09,0.05,-0.01,0.09,0.05
-0.01,0.09,0.05,-0.01,0.08,0.05
-0.01,0.09,0.05,-0.01,0.09,0.05
-0.00,0.08,0.05,0.00,0.09,0.05
0.00,0.09,0.05,0.00,0.08,0.05
0.00,0.09,0.05,0.00,0.09,0.05
-0.00,0.09,0.05,0.00,0.09,0.05
-0.00,0.09,0.04,0.00,0.09,0.05
-0.00,0.09,0.05,-0.00,0.09,0.04
-0.01,0.08,0.05,-0.01,0.09,0.04
-0.01,0.08,0.04,-0.01,0.08,0.04
-0.01,0.08,0.05,-0.01,0.09,0.05
-0.01,0.09,0.04,-0.01,0.09,0.05
-0.02,0.09,0.04,-0.01,0.08,0.04
-0.01,0.08,0.05,-0.01,0.08,0.05
-0.02,0.08,0.04,-0.01,0.08,0.05
-0.02,0.08,0.04,-0.02,0.09,0.05
-0.02,0.09,0.05,-0.01,0.09,0.05
-0.01,0.09,0.05,-0.02,0.09,0.05
-0.01,0.08,0.05,-0.01,0.09,0.04
-0.01,0.09,0.05,-0.01,0.09,0.05
-0.01,0.09,0.05,-0.01,0.09,0.05
-0.01,0.09,0.05,-0.01,0.09,0.05
-0.00,0.09,0.05,-0.00,0.09,0.05
-0.00,0.09,0.05,-0.00,0.09,0.05
-0.00,0.09,0.05,-0.00,0.09,0.05
-0.00,0.09,0.05,-0.01,0.09,0.05
-0.01,0.09,0.05,-0.00,0.09,0.05
-0.01,0.09,0.05,-0.01,0.09,0.05
-0.01,0.09,0.05,-0.01,0.09,0.05
-0.01,0.09,0.05,-0.01,0.09,0.05
-0.01,0.09,0.05,-0.01,0.09,0.05
-0.01,0.09,0.05,-0.01,0.08,0.04
-0.01,0.09,0.04,-0.01,0.08,0.04
-0.01,0.09,0.05,-0.01,0.09,0.05
-0.01,0.09,0.05,-0.01,0.09,0.04
-0.01,0.09,0.05,-0.01,0.09,0.05
-0.01,0.09,0.05,-0.01,0.09,0.05
-0.01,0.09,0.05,-0.01,0.08,0.05
-0.01,0.09,0.05,-0.01,0.09,0.05
-0.00,0.09,0.05,-0.00,0.09,0.05
-0.00,0.09,0.05,-0.00,0.09,0.05
-0.00,0.09,0.05,0.00,0.09,0.05
-0.00,0.09,0.05,-0.00,0.09,0.05
-0.00,0.09,0.05,-0.00,0.09,0.05
-0.00,0.09,0.05,-0.00,0.09,0.05
0.00,0.09,0.05,-0.00,0.09,0.05
-0.00,0.08,0.05,-0.00,0.09,0.05
-0.00,0.09,0.05,-0.00,0.09,0.05
-0.00,0.09,0.05,-0.01,0.09,0.05
-0.01,0.09,0.05,-0.00,0.09,0.04
-0.01,0.09,0.05,-0.01,0.09,0.04
-0.01,0.09,0.04,-0.01,0.09,0.04
-0.01,0.09,0.05,-0.01,0.09,0.04
-0.01,0.09,0.04,-0.01,0.09,0.05
-0.01,0.09,0.05,-0.01,0.09,0.04
-0.01,0.09,0.05,-0.01,0.09,0.05
-0.00,0.09,0.05,-0.00,0.09,0.05
-0.00,0.09,0.05,-0.00,0.09,0.05
-0.01,0.09,0.05,-0.01,0.09,0.05
-0.00,0.09,0.05,-0.00,0.09,0.05
-0.00,0.09,0.05,-0.00,0.09,0.05
-0.00,0.09,0.05,-0.01,0.09,0.05
-0.00,0.09,0.05,-0.01,0.09,0.05
-0.00,0.09,0.05,-0.01,0.09,0.05
-0.01,0.09,0.05,-0.01,0.09,0.05
-0.01,0.09,0.05,-0.01,0.09,0.04
-0.01,0.09,0.05,-0.01,0.09,0.05
-0.01,0.09,0.05,-0.00,0.08,0.05
-0.01,0.09,0.05,-0.01,0.09,0.05
-0.00,0.09,0.05,-0.00,0.08,0.05
-0.00,0.09,0.05,-0.01,0.09,0.05
-0.01,0.09,0.05,-0.00,0.09,0.05
-0.01,0.09,0.05,-0.01,0.09,0.05
-0.01,0.09,0.05,-0.01,0.09,0.04
-0.01,0.09,0.04,-0.01,0.09,0.05
-0.01,0.09,0.05,-0.01,0.09,0.05
-0.01,0.09,0.05,-0.01,0.09,0.05
-0.01,0.09,0.05,-0.01,0.09,0.05
-0.01,0.09,0.05,-0.01,0.09,0.05
-0.01,0.09,0.05,-0.01,0.09,0.05
-0.01,0.09,0.05,-0.01,0.09,0.05
-0.01,0.09,0.05,-0.01,0.09,0.05
-0.01,0.09,0.05,-0.01,0.09,0.05
-0.01,0.09,0.05,-0.01,0.08,0.05
-0.01,0.08,0.05,-0.01,0.09,0.05
-0.01,0.08,0.05,-0.01,0.09,0.05
-0.00,0.09,0.05,-0.01,0.09,0.04
-0.00,0.09,0.05,-0.00,0.09,0.05
-0.00,0.09,0.05,-0.00,0.09,0.04
-0.00,0.09,0.05,-0.00,0.09,0.04
-0.00,0.09,0.05,-0.00,0.09,0.04
-0.00,0.09,0.05,-0.01,0.09,0.04
-0.00,0.09,0.04,-0.01,0.09,0.04
-0.01,0.09,0.05,-0.00,0.09,0.05
-0.01,0.09,0.05,-0.01,0.09,0.05
-0.01,0.09,0.05,-0.01,0.09,0.05
-0.01,0.09,0.05,-0.01,0.09,0.05
-0.01,0.09,0.05,-0.00,0.09,0.05
-0.01,0.09,0.05,-0.01,0.09,0.05
-0.01,0.09,0.05,-0.01,0.09,0.05
-0.01,0.08,0.05,-0.01,0.09,0.05
-0.01,0.09,0.04,-0.01,0.09,0.05
-0.01,0.09,0.04,-0.01,0.09,0.04
-0.01,0.09,0.04,-0.01,0.09,0.05
-0.01,0.09,0.04,-0.01,0.09,0.05
-0.00,0.09,0.05,-0.01,0.09,0.05
-0.01,0.09,0.04,-0.01,0.09,0.05
-0.00,0.09,0.05,-0.01,0.09,0.05
-0.01,0.09,0.05,-0.00,0.09,0.05
-0.00,0.09,0.05,-0.01,0.09,0.05
-0.01,0.09,0.05,-0.01,0.08,0.05
-0.01,0.09,0.05,-0.01,0.09,0.05
-0.01,0.09,0.05,-0.01,0.09,0.05
-0.01,0.09,0.05,-0.01,0.08,0.05
-0.01,0.09,0.05,-0.01,0.09,0.05
-0.01,0.09,0.05,-0.01,0.09,0.04
-0.01,0.09,0.05,-0.01,0.08,0.05
-0.01,0.09,0.05,-0.01,0.09,0.05
-0.01,0.09,0.05,-0.00,0.09,0.05
-0.01,0.08,0.04,-0.01,0.09,0.05
-0.01,0.09,0.04,-0.01,0.09,0.04
-0.00,0.09,0.05,-0.01,0.09,0.05
-0.01,0.09,0.05,-0.01,0.09,0.05
-0.01,0.09,0.05,-0.01,0.09,0.05
-0.00,0.09,0.05,-0.01,0.09,0.05
-0.01,0.09,0.05,-0.01,0.09,0.05
-0.00,0.09,0.05,-0.01,0.09,0.05
-0.01,0.09,0.05,-0.01,0.09,0.05
-0.01,0.09,0.05,-0.01,0.09,0.04
-0.01,0.09,0.05,-0.01,0.09,0.05
-0.01,0.09,0.05,-0.01,0.09,0.05
-0.01,0.09,0.05,-0.00,0.09,0.05
-0.01,0.09,0.05,-0.00,0.09,0.05
-0.01,0.09,0.05,-0.01,0.09,0.05
-0.01,0.09,0.05,-0.01,0.09,0.05
-0.01,0.09,0.05,-0.01,0.09,0.05
-0.01,0.09,0.05,-0.01,0.09,0.05
-0.01,0.09,0.04,-0.01,0.09,0.04
-0.01,0.09,0.05,-0.01,0.09,0.04
-0.01,0.09,0.04,-0.01,0.09,0.05
-0.01,0.09,0.05,-0.01,0.09,0.04
-0.01,0.09,0.05,-0.01,0.09,0.05
-0.01,0.09,0.05,-0.01,0.09,0.04
-0.00,0.09,0.04,-0.00,0.09,0.05
-0.01,0.09,0.05,-0.01,0.09,0.05
-0.00,0.09,0.05,-0.00,0.09,0.05
-0.00,0.09,0.05,-0.00,0.09,0.05
-0.00,0.09,0.05,-0.01,0.09,0.05
-0.01,0.09,0.05,-0.01,0.09,0.05
-0.01,0.09,0.05,-0.00,0.09,0.05
-0.01,0.09,0.05,-0.01,0.09,0.05
-0.01,0.09,0.05,-0.01,0.09,0.05
-0.01,0.09,0.04,-0.01,0.09,0.05
-0.01,0.09,0.05,-0.01,0.09,0.05
-0.01,0.09,0.05,-0.01,0.09,0.05
-0.01,0.09,0.05,-0.01,0.09,0.05
-0.01,0.09,0.05,-0.01,0.09,0.05
-0.01,0.09,0.05,-0.01,0.09,0.05
-0.01,0.09,0.05,-0.01,0.09,0.05
-0.01,0.09,0.05,-0.00,0.09,0.05
-0.00,0.09,0.05,-0.01,0.09,0.05
-0.01,0.08,0.04,-0.01,0.09,0.05
-0.01,0.09,0.04,-0.01,0.09,0.05
-0.01,0.09,0.05,-0.01,0.09,0.05
-0.01,0.09,0.05,-0.01,0.08,0.05
-0.01,0.09,0.05,-0.01,0.09,0.05
-0.01,0.09,0.05,-0.01,0.08,0.05
-0.00,0.08,0.05,-0.00,0.09,0.05
-0.01,0.09,0.05,-0.00,0.09,0.05
-0.01,0.09,0.05,-0.01,0.09,0.05
-0.00,0.09,0.04,-0.01,0.09,0.04
-0.01,0.09,0.04,-0.01,0.09,0.05
-0.01,0.09,0.05,-0.01,0.09,0.05
-0.01,0.09,0.05,-0.01,0.09,0.04
-0.01,0.09,0.05,-0.00,0.09,0.05
-0.00,0.09,0.05,-0.00,0.09,0.05
-0.00,0.09,0.05,-0.01,0.09,0.05
-0.01,0.09,0.05,-0.01,0.09,0.05
-0.00,0.09,0.05,-0.01,0.09,0.05
-0.01,0.09,0.05,-0.01,0.09,0.05
-0.01,0.09,0.05,-0.01,0.09,0.05
-0.01,0.09,0.05,-0.01,0.09,0.05
-0.01,0.09,0.05,-0.01,0.09,0.05
-0.01,0.09,0.05,-0.01,0.09,0.05
-0.01,0.09,0.05,-0.01,0.08,0.04
-0.01,0.09,0.05,-0.01,0.09,0.05
-0.01,0.09,0.04,-0.01,0.09,0.05
-0.01,0.08,0.05,-0.01,0.09,0.05
-0.01,0.09,0.05,-0.01,0.09,0.05
-0.00,0.09,0.05,-0.00,0.09,0.05
-0.00,0.09,0.05,-0.00,0.09,0.05
-0.00,0.09,0.05,-0.00,0.09,0.05
0.00,0.09,0.05,-0.00,0.08,0.05
-0.00,0.09,0.05,-0.00,0.09,0.05
-0.00,0.09,0.05,-0.01,0.09,0.05
-0.00,0.09,0.05,-0.00,0.09,0.05
-0.01,0.09,0.05,-0.01,0.09,0.05
-0.01,0.09,0.05,-0.01,0.09,0.05
-0.01,0.09,0.05,-0.01,0.09,0.05
-0.01,0.09,0.05,-0.01,0.08,0.05
-0.01,0.09,0.05,-0.01,0.09,0.05
-0.01,0.09,0.05,-0.01,0.09,0.05
-0.01,0.09,0.05,-0.01,0.09,0.05
-0.01,0.09,0.05,-0.01,0.09,0.05
-0.00,0.09,0.04,-0.00,0.09,0.04
0.00,0.09,0.05,-0.01,0.09,0.05
-0.00,0.09,0.05,-0.00,0.09,0.05
0.00,0.09,0.05,0.00,0.09,0.05
0.00,0.09,0.05,0.00,0.08,0.05
0.00,0.09,0.05,0.00,0.09,0.05
0.00,0.09,0.05,-0.00,0.09,0.04
-0.00,0.09,0.05,-0.01,0.09,0.05
-0.01,0.09,0.05,-0.01,0.09,0.05
-0.01,0.08,0.05,-0.01,0.09,0.05
-0.01,0.09,0.05,-0.01,0.09,0.05
-0.01,0.09,0.04,-0.01,0.09,0.05
-0.01,0.09,0.05,-0.01,0.09,0.05
-0.01,0.09,0.04,-0.01,0.09,0.05
-0.01,0.09,0.05,-0.01,0.08,0.05
-0.01,0.08,0.04,-0.01,0.09,0.05
-0.01,0.09,0.05,-0.01,0.09,0.05
-0.01,0.09,0.04,-0.01,0.09,0.05
-0.01,0.09,0.05,-0.01,0.09,0.05
-0.01,0.09,0.04,-0.01,0.09,0.05
-0.00,0.09,0.05,-0.00,0.09,0.05
0.00,0.09,0.05,0.00,0.09,0.05
0.00,0.09,0.05,0.00,0.09,0.05
-0.00,0.09,0.05,-0.00,0.09,0.05
0.00,0.09,0.05,-0.00,0.09,0.05
-0.01,0.09,0.05,-0.00,0.09,0.04
-0.01,0.09,0.05,-0.01,0.09,0.04
-0.01,0.09,0.04,-0.01,0.09,0.05
-0.01,0.09,0.04,-0.01,0.09,0.05
-0.01,0.09,0.05,-0.01,0.09,0.04
-0.01,0.09,0.05,-0.01,0.09,0.05
-0.01,0.09,0.05,-0.01,0.08,0.05
-0.01,0.08,0.05,-0.01,0.08,0.05
-0.01,0.09,0.05,-0.01,0.09,0.05
-0.01,0.09,0.05,-0.01,0.09,0.05
-0.01,0.09,0.05,-0.00,0.09,0.05
-0.01,0.09,0.05,-0.00,0.09,0.05
-0.00,0.09,0.05,-0.01,0.09,0.05
-0.00,0.09,0.05,-0.00,0.09,0.05
-0.01,0.09,0.04,-0.00,0.09,0.05
-0.00,0.09,0.05,-0.01,0.09,0.05
-0.00,0.09,0.05,-0.00,0.09,0.05
-0.01,0.09,0.05,-0.00,0.09,0.05
-0.01,0.09,0.05,-0.00,0.09,0.05
-0.00,0.09,0.05,-0.01,0.09,0.05
-0.01,0.09,0.05,-0.01,0.09,0.05
-0.01,0.09,0.05,-0.01,0.09,0.05
-0.01,0.09,0.05,-0.01,0.09,0.05
-0.01,0.08,0.05,-0.01,0.09,0.05
-0.01,0.08,0.04,-0.00,0.09,0.04
-0.00,0.09,0.05,-0.00,0.09,0.05
-0.00,0.09,0.05,-0.01,0.09,0.05
-0.01,0.09,0.05,-0.00,0.09,0.05
-0.01,0.09,0.05,-0.00,0.09,0.05
-0.01,0.09,0.05,-0.00,0.09,0.05
-0.00,0.09,0.05,-0.01,0.09,0.05
-0.01,0.09,0.05,-0.01,0.09,0.04
-0.01,0.09,0.05,-0.01,0.09,0.04
-0.01,0.09,0.05,-0.01,0.09,0.05
-0.01,0.09,0.05,-0.01,0.09,0.05
-0.01,0.09,0.05,-0.01,0.09,0.05
-0.01,0.09,0.05,-0.00,0.09,0.05
-0.00,0.09,0.05,-0.00,0.09,0.05
-0.01,0.09,0.05,-0.01,0.09,0.05
-0.01,0.09,0.05,-0.00,0.09,0.05
-0.01,0.09,0.05,-0.01,0.09,0.05
-0.00,0.09,0.04,-0.01,0.09,0.05
-0.01,0.09,0.05,-0.00,0.09,0.05
-0.01,0.09,0.05,-0.01,0.09,0.05
-0.01,0.09,0.05,-0.01,0.09,0.05
-0.01,0.09,0.05,-0.01,0.09,0.05
-0.01,0.09,0.05,-0.01,0.09,0.05
-0.01,0.08,0.05,-0.01,0.09,0.04
-0.01,0.09,0.05,-0.01,0.09,0.05
-0.01,0.09,0.04,-0.01,0.09,0.05
-0.01,0.09,0.05,-0.01,0.09,0.05
-0.01,0.09,0.05,-0.01,0.09,0.05
-0.00,0.09,0.05,-0.00,0.09,0.05
0.00,0.09,0.05,0.00,0.09,0.05
0.00,0.09,0.05,0.00,0.09,0.05
-0.00,0.09,0.05,0.00,0.09,0.05
-0.00,0.09,0.04,-0.00,0.09,0.05
-0.00,0.09,0.05,-0.00,0.09,0.05
-0.00,0.09,0.05,-0.01,0.09,0.05
-0.01,0.09,0.05,-0.01,0.09,0.05
-0.01,0.08,0.05,-0.01,0.08,0.05
-0.01,0.09,0.05,-0.01,0.09,0.05
-0.01,0.09,0.04,-0.01,0.09,0.05
-0.01,0.09,0.04,-0.01,0.09,0.05
-0.01,0.09,0.05,-0.01,0.09,0.05
-0.01,0.08,0.05,-0.01,0.09,0.05
-0.01,0.09,0.05,-0.01,0.09,0.05
-0.01,0.09,0.05,-0.00,0.09,0.05
-0.01,0.09,0.05,-0.00,0.09,0.05
-0.00,0.09,0.05,0.00,0.09,0.05
0.00,0.09,0.05,-0.00,0.09,0.05
-0.00,0.09,0.05,-0.00,0.09,0.05
-0.01,0.09,0.05,-0.00,0.09,0.04
-0.00,0.09,0.05,-0.00,0.09,0.05
-0.01,0.09,0.05,-0.01,0.09,0.05
-0.01,0.09,0.05,-0.01,0.09,0.05
-0.01,0.09,0.05,-0.01,0.09,0.05
-0.01,0.09,0.05,-0.01,0.09,0.04
-0.01,0.09,0.05,-0.01,0.09,0.05
-0.01,0.09,0.05,-0.01,0.09,0.05
-0.01,0.09,0.05,-0.01,0.09,0.05
-0.01,0.09,0.05,-0.01,0.09,0.05
-0.01,0.09,0.05,-0.01,0.09,0.05
-0.01,0.09,0.05,-0.01,0.09,0.05
-0.00,0.09,0.05,-0.00,0.09,0.05
-0.00,0.09,0.05,-0.00,0.09,0.05
-0.00,0.09,0.05,-0.00,0.09,0.05
-0.00,0.09,0.05,-0.00,0.09,0.05
-0.00,0.09,0.05,-0.00,0.09,0.05
-0.00,0.09,0.04,-0.00,0.09,0.05
-0.01,0.09,0.05,-0.01,0.09,0.05
-0.01,0.09,0.05,-0.01,0.09,0.05
-0.01,0.09,0.05,-0.01,0.09,0.04
-0.01,0.09,0.05,-0.01,0.09,0.05
-0.01,0.09,0.05,-0.01,0.09,0.05
-0.01,0.09,0.04,-0.01,0.09,0.04
-0.01,0.09,0.05,-0.01,0.09,0.05
-0.01,0.09,0.05,-0.01,0.09,0.05
-0.00,0.09,0.05,-0.00,0.09,0.05
-0.01,0.09,0.05,-0.00,0.09,0.05
-0.01,0.08,0.05,-0.01,0.08,0.05
-0.00,0.09,0.05,-0.01,0.09,0.05
-0.01,0.09,0.05,-0.00,0.09,0.05
-0.01,0.09,0.05,-0.00,0.09,0.05
-0.01,0.09,0.05,-0.00,0.09,0.05
-0.01,0.09,0.04,-0.01,0.09,0.05
-0.01,0.09,0.05,-0.01,0.09,0.05
-0.01,0.09,0.05,-0.01,0.09,0.05
-0.01,0.09,0.05,-0.01,0.09,0.05
-0.01,0.09,0.05,-0.01,0.09,0.05
-0.01,0.08,0.05,-0.01,0.09,0.05
-0.01,0.09,0.05,-0.01,0.08,0.05
-0.01,0.09,0.05,-0.01,0.09,0.05
-0.01,0.09,0.05,-0.01,0.09,0.05
-0.01,0.09,0.05,-0.01,0.09,0.05
-0.01,0.09,0.05,-0.01,0.09,0.04
-0.01,0.09,0.05,-0.00,0.09,0.05
-0.01,0.08,0.05,-0.01,0.09,0.05
-0.01,0.09,0.05,-0.01,0.09,0.05
-0.01,0.09,0.05,-0.01,0.09,0.05
-0.00,0.08,0.04,-0.00,0.09,0.05
-0.01,0.09,0.05,-0.01,0.09,0.05
-0.01,0.09,0.05,-0.01,0.09,0.05
-0.01,0.09,0.04,-0.01,0.09,0.05
-0.01,0.09,0.05,-0.01,0.09,0.06
-0.01,0.09,0.05,-0.01,0.09,0.05
-0.01,0.09,0.05,-0.01,0.08,0.05
-0.01,0.09,0.05,-0.01,0.09,0.05
-0.01,0.09,0.05,-0.01,0.09,0.05
-0.01,0.08,0.05,-0.01,0.09,0.05
-0.01,0.09,0.05,-0.01,0.09,0.05
-0.01,0.08,0.05,-0.01,0.08,0.05
-0.01,0.09,0.05,-0.01,0.09,0.05
-0.01,0.09,0.05,-0.01,0.09,0.05
-0.01,0.09,0.05,-0.01,0.09,0.05
-0.01,0.09,0.05,-0.01,0.09,0.05
-0.01,0.09,0.04,-0.01,0.09,0.05
-0.01,0.09,0.05,-0.00,0.09,0.05
-0.01,0.09,0.05,-0.01,0.09,0.05
-0.01,0.09,0.05,-0.00,0.09,0.05
-0.01,0.09,0.05,-0.01,0.09,0.05
-0.01,0.09,0.05,-0.01,0.08,0.05
-0.01,0.09,0.05,-0.00,0.09,0.05
-0.00,0.09,0.05,-0.01,0.09,0.05
-0.01,0.09,0.05,-0.00,0.09,0.05
-0.01,0.09,0.05,-0.00,0.09,0.05
-0.01,0.09,0.05,-0.01,0.09,0.05
-0.00,0.09,0.05,-0.01,0.09,0.05
-0.01,0.09,0.05,-0.01,0.09,0.05
-0.00,0.09,0.04,-0.01,0.09,0.05
-0.01,0.09,0.05,-0.01,0.09,0.05
-0.01,0.09,0.05,-0.01,0.09,0.05
-0.01,0.09,0.05,-0.01,0.09,0.05
-0.01,0.09,0.05,-0.01,0.09,0.05
-0.01,0.09,0.05,-0.01,0.09,0.05
-0.01,0.09,0.05,-0.01,0.09,0.05
-0.01,0.09,0.05,-0.01,0.09,0.05
-0.01,0.09,0.05,-0.01,0.09,0.05
-0.01,0.09,0.05,-0.01,0.09,0.05
-0.00,0.08,0.04,-0.00,0.09,0.05
-0.01,0.09,0.05,-0.01,0.09,0.05
-0.00,0.09,0.05,-0.01,0.09,0.05
-0.01,0.09,0.05,-0.01,0.09,0.05
-0.00,0.09,0.05,-0.00,0.09,0.05
-0.00,0.09,0.05,-0.01,0.09,0.05
-0.00,0.09,0.05,-0.00,0.09,0.05
-0.01,0.09,0.05,-0.01,0.09,0.05
-0.01,0.09,0.05,-0.01,0.09,0.05
-0.01,0.09,0.05,-0.01,0.09,0.04
-0.01,0.09,0.05,-0.01,0.09,0.05
-0.01,0.09,0.05,-0.01,0.09,0.05
-0.01,0.09,0.05,-0.01,0.09,0.05
-0.01,0.09,0.05,-0.01,0.09,0.05
-0.01,0.09,0.05,-0.01,0.09,0.05
-0.01,0.09,0.05,-0.01,0.09,0.05
-0.01,0.09,0.05,-0.01,0.09,0.05
-0.01,0.09,0.05,-0.00,0.09,0.05
-0.00,0.09,0.05,-0.01,0.09,0.05
-0.01,0.09,0.05,-0.01,0.09,0.05
-0.01,0.09,0.05,-0.01,0.08,0.05
-0.01,0.09,0.05,-0.01,0.09,0.05
-0.01,0.09,0.04,-0.01,0.09,0.05
-0.01,0.09,0.05,-0.01,0.08,0.05
-0.01,0.09,0.05,-0.01,0.09,0.04
-0.01,0.09,0.05,-0.01,0.09,0.04
-0.01,0.09,0.05,-0.01,0.09,0.04
-0.01,0.09,0.04,-0.01,0.09,0.04
-0.01,0.09,0.05,-0.00,0.08,0.04
-0.01,0.09,0.04,-0.01,0.09,0.05
-0.01,0.09,0.04,-0.01,0.09,0.05
-0.00,0.09,0.05,-0.01,0.09,0.04
-0.01,0.09,0.05,-0.00,0.08,0.05
-0.01,0.09,0.05,-0.01,0.09,0.05
-0.01,0.09,0.05,-0.00,0.09,0.05
-0.01,0.09,0.05,-0.01,0.09,0.05
-0.00,0.09,0.05,-0.00,0.09,0.05
-0.01,0.09,0.05,-0.01,0.09,0.05
-0.01,0.09,0.04,-0.01,0.09,0.05
-0.01,0.09,0.04,-0.01,0.09,0.05
-0.01,0.09,0.05,-0.01,0.09,0.05
-0.01,0.09,0.05,-0.01,0.09,0.05
-0.01,0.09,0.05,-0.01,0.09,0.05
-0.01,0.09,0.05,-0.00,0.09,0.05
-0.01,0.09,0.05,-0.01,0.09,0.05
-0.01,0.09,0.05,-0.01,0.09,0.05
-0.01,0.08,0.05,-0.01,0.09,0.05
-0.01,0.09,0.05,-0.01,0.09,0.05
-0.00,0.09,0.05,-0.01,0.09,0.05
-0.01,0.09,0.05,-0.01,0.09,0.05
-0.01,0.09,0.05,-0.01,0.09,0.04
-0.01,0.09,0.05,-0.01,0.09,0.04
-0.00,0.09,0.05,-0.01,0.09,0.05
-0.00,0.09,0.05,-0.01,0.09,0.05
-0.01,0.09,0.05,-0.01,0.09,0.05
-0.01,0.09,0.04,-0.01,0.09,0.05
-0.01,0.09,0.05,-0.01,0.09,0.05
-0.01,0.09,0.05,-0.01,0.09,0.05
-0.01,0.09,0.05,-0.01,0.09,0.05
-0.01,0.08,0.05,-0.01,0.09,0.05
-0.01,0.09,0.05,-0.01,0.09,0.05
-0.01,0.09,0.05,-0.01,0.09,0.05
-0.01,0.09,0.05,-0.01,0.09,0.05
-0.01,0.09,0.04,-0.01,0.09,0.04
-0.00,0.09,0.05,-0.00,0.09,0.04
-0.01,0.09,0.05,-0.00,0.09,0.04
-0.01,0.09,0.05,-0.00,0.09,0.05
-0.00,0.09,0.05,-0.00,0.09,0.05
-0.01,0.09,0.05,-0.01,0.09,0.05
-0.00,0.09,0.05,-0.01,0.09,0.05
-0.01,0.09,0.05,-0.01,0.09,0.05
-0.01,0.09,0.05,-0.01,0.09,0.05
-0.01,0.09,0.05,-0.01,0.09,0.05
-0.01,0.09,0.05,-0.01,0.09,0.05
-0.01,0.09,0.05,-0.01,0.09,0.05
-0.01,0.09,0.05,-0.01,0.09,0.05
-0.01,0.09,0.04,-0.01,0.09,0.05
-0.01,0.09,0.04,-0.01,0.09,0.05
-0.01,0.09,0.04,-0.01,0.09,0.04
-0.01,0.08,0.04,-0.01,0.09,0.05
-0.01,0.08,0.05,-0.01,0.08,0.05
-0.01,0.09,0.05,-0.00,0.09,0.05
-0.00,0.09,0.05,-0.00,0.09,0.05
-0.00,0.09,0.05,-0.00,0.08,0.05
-0.01,0.08,0.05,-0.00,0.08,0.05
-0.00,0.09,0.05,-0.01,0.08,0.05
-0.01,0.09,0.05,-0.01,0.09,0.05
-0.01,0.09,0.05,-0.01,0.08,0.04
-0.01,0.09,0.05,-0.01,0.09,0.05
-0.01,0.09,0.04,-0.01,0.09,0.05
-0.01,0.09,0.05,-0.01,0.08,0.05
-0.01,0.09,0.05,-0.01,0.09,0.05
-0.01,0.09,0.05,-0.01,0.08,0.05
-0.01,0.09,0.05,-0.01,0.09,0.05
-0.01,0.09,0.05,-0.01,0.09,0.05
-0.01,0.09,0.05,-0.00,0.09,0.05
-0.00,0.09,0.05,-0.01,0.09,0.04
-0.01,0.09,0.04,-0.00,0.08,0.05
-0.00,0.09,0.05,-0.01,0.09,0.04
-0.01,0.09,0.05,-0.01,0.09,0.05
-0.01,0.09,0.04,-0.01,0.09,0.05
-0.00,0.09,0.04,-0.01,0.09,0.05
-0.01,0.09,0.05,-0.01,0.09,0.05
-0.01,0.09,0.05,-0.01,0.09,0.05
-0.01,0.09,0.05,-0.01,0.09,0.05
-0.01,0.09,0.05,-0.01,0.09,0.05
-0.00,0.09,0.05,-0.01,0.09,0.05
-0.01,0.08,0.05,-0.01,0.09,0.05
-0.01,0.09,0.05,-0.01,0.09,0.05
-0.01,0.09,0.05,-0.01,0.09,0.05
-0.01,0.09,0.05,-0.01,0.09,0.05
-0.00,0.09,0.05,-0.00,0.09,0.05
-0.00,0.09,0.05,-0.01,0.09,0.05
-0.00,0.09,0.05,-0.00,0.09,0.05
-0.01,0.09,0.05,-0.00,0.09,0.05
-0.00,0.09,0.05,-0.00,0.09,0.05
-0.00,0.09,0.05,-0.00,0.09,0.05
-0.00,0.09,0.05,-0.00,0.09,0.05
0.00,0.09,0.05,-0.00,0.09,0.05
-0.00,0.09,0.05,-0.00,0.09,0.05
-0.00,0.09,0.05,-0.01,0.09,0.05
-0.01,0.09,0.05,-0.01,0.09,0.04
-0.01,0.09,0.05,-0.01,0.09,0.04
-0.01,0.09,0.05,-0.01,0.09,0.05
-0.01,0.09,0.05,-0.01,0.09,0.05
-0.01,0.09,0.05,-0.01,0.09,0.05
-0.01,0.09,0.05,-0.01,0.09,0.05
-0.00,0.08,0.05,-0.01,0.09,0.05
-0.01,0.09,0.04,-0.01,0.09,0.04
-0.01,0.09,0.04,-0.00,0.09,0.05
-0.01,0.09,0.05,-0.01,0.09,0.05
-0.00,0.09,0.05,-0.01,0.09,0.05
-0.01,0.09,0.05,-0.00,0.09,0.05
-0.00,0.09,0.05,-0.01,0.09,0.05
-0.01,0.09,0.05,-0.00,0.09,0.05
-0.00,0.09,0.05,-0.01,0.09,0.05
-0.01,0.09,0.05,-0.00,0.09,0.05
-0.00,0.09,0.05,-0.00,0.09,0.05
-0.01,0.09,0.05,-0.01,0.09,0.05
-0.01,0.09,0.05,-0.01,0.09,0.05
-0.00,0.09,0.05,-0.00,0.09,0.04
-0.01,0.09,0.05,-0.01,0.09,0.05
-0.01,0.09,0.05,-0.01,0.09,0.05
-0.01,0.09,0.04,-0.01,0.09,0.05
-0.01,0.09,0.05,-0.01,0.09,0.05
-0.01,0.09,0.05,-0.01,0.09,0.05
-0.01,0.09,0.05,-0.01,0.09,0.05
-0.01,0.09,0.05,-0.01,0.09,0.05
-0.01,0.09,0.05,-0.01,0.09,0.05
-0.01,0.09,0.05,-0.01,0.09,0.05
-0.01,0.09,0.05,-0.01,0.09,0.04
-0.01,0.09,0.04,-0.01,0.09,0.05
-0.01,0.09,0.05,-0.01,0.09,0.05
-0.01,0.09,0.05,-0.01,0.09,0.04
-0.01,0.09,0.04,-0.01,0.09,0.05
-0.01,0.09,0.04,-0.01,0.09,0.05
-0.01,0.09,0.05,-0.00,0.09,0.05
-0.01,0.09,0.05,-0.01,0.09,0.05
-0.01,0.09,0.05,-0.00,0.09,0.05
-0.01,0.09,0.05,-0.01,0.09,0.05
-0.01,0.09,0.04,-0.01,0.09,0.05
-0.01,0.09,0.05,-0.01,0.09,0.04
-0.01,0.09,0.05,-0.01,0.09,0.05
-0.01,0.09,0.05,-0.01,0.09,0.05
-0.01,0.09,0.05,-0.00,0.08,0.05
-0.01,0.09,0.05,-0.01,0.08,0.05
-0.01,0.08,0.05,-0.01,0.09,0.05
-0.01,0.09,0.05,-0.01,0.09,0.05
-0.01,0.09,0.04,-0.01,0.09,0.05
-0.01,0.09,0.04,-0.01,0.09,0.04
-0.01,0.08,0.05,-0.00,0.09,0.05
-0.01,0.09,0.05,-0.01,0.09,0.05
-0.01,0.09,0.05,-0.01,0.08,0.05
-0.01,0.09,0.04,-0.01,0.09,0.05
-0.01,0.08,0.05,-0.01,0.08,0.05
-0.01,0.08,0.05,-0.01,0.08,0.05
-0.02,0.09,0.05,-0.01,0.08,0.05
-0.01,0.09,0.05,-0.01,0.08,0.05
-0.01,0.08,0.05,-0.01,0.08,0.05
-0.01,0.09,0.05,-0.01,0.09,0.04
-0.01,0.09,0.05,-0.01,0.09,0.04
-0.01,0.09,0.04,-0.01,0.09,0.04
-0.01,0.09,0.04,-0.01,0.09,0.04
-0.01,0.09,0.05,-0.01,0.09,0.05
-0.00,0.08,0.05,-0.01,0.08,0.05
-0.01,0.09,0.05,-0.01,0.09,0.05
-0.01,0.09,0.05,-0.01,0.09,0.05
-0.01,0.09,0.05,-0.00,0.09,0.05
-0.00,0.09,0.05,-0.01,0.09,0.05
-0.00,0.09,0.05,-0.00,0.09,0.05
-0.00,0.08,0.05,-0.01,0.09,0.05
-0.01,0.09,0.04,-0.01,0.09,0.04
-0.01,0.09,0.04,-0.02,0.09,0.04
-0.02,0.08,0.04,-0.02,0.08,0.04
-0.01,0.08,0.04,-0.02,0.08,0.04
-0.02,0.08,0.04,-0.01,0.08,0.04
-0.02,0.08,0.04,-0.01,0.08,0.05
-0.01,0.09,0.05,-0.01,0.08,0.05
-0.01,0.09,0.05,-0.01,0.09,0.06
-0.01,0.09,0.05,-0.01,0.09,0.06
-0.00,0.08,0.06,-0.01,0.09,0.05
-0.01,0.09,0.06,-0.00,0.09,0.06
-0.00,0.09,0.05,0.00,0.09,0.05
0.00,0.09,0.05,0.00,0.09,0.05
0.00,0.09,0.05,0.00,0.09,0.05
-0.00,0.09,0.05,-0.00,0.09,0.05
-0.00,0.09,0.04,-0.01,0.09,0.04
-0.01,0.09,0.04,-0.01,0.09,0.04
-0.01,0.09,0.04,-0.01,0.09,0.04
-0.01,0.09,0.05,-0.01,0.09,0.05
-0.01,0.09,0.05,-0.01,0.09,0.05
-0.01,0.09,0.05,-0.00,0.08,0.05
0.00,0.09,0.05,0.00,0.09,0.06
0.00,0.09,0.05,0.00,0.09,0.05
-0.00,0.09,0.05,-0.00,0.08,0.05
-0.01,0.08,0.05,-0.01,0.09,0.05
-0.01,0.09,0.05,-0.01,0.09,0.05
-0.01,0.09,0.04,-0.02,0.09,0.05
-0.01,0.09,0.05,-0.01,0.09,0.04
-0.01,0.10,0.05,-0.02,0.09,0.05
-0.01,0.09,0.05,-0.01,0.08,0.05
-0.01,0.08,0.05,-0.01,0.08,0.05
-0.01,0.08,0.05,-0.01,0.09,0.04
-0.01,0.09,0.04,-0.01,0.09,0.05
-0.01,0.09,0.04,-0.01,0.09,0.04
-0.00,0.09,0.04,0.00,0.09,0.04
0.01,0.09,0.04,0.01,0.09,0.04
0.01,0.09,0.04,0.02,0.09,0.05
0.02,0.09,0.04,0.02,0.09,0.05
0.02,0.10,0.05,0.02,0.09,0.05
0.02,0.09,0.05,0.01,0.09,0.05
0.01,0.09,0.06,0.01,0.09,0.05
0.01,0.09,0.05,0.01,0.09,0.05
0.00,0.09,0.05,-0.00,0.09,0.05
-0.01,0.09,0.05,-0.01,0.09,0.05
-0.01,0.09,0.05,-0.02,0.09,0.05
-0.02,0.09,0.05,-0.02,0.08,0.04
-0.02,0.08,0.05,-0.02,0.09,0.05
-0.02,0.09,0.05,-0.02,0.09,0.05
-0.02,0.09,0.05,-0.02,0.09,0.05
-0.02,0.09,0.05,-0.02,0.09,0.05
-0.01,0.09,0.05,-0.01,0.09,0.04
-0.01,0.09,0.05,-0.01,0.09,0.05
-0.01,0.09,0.04,-0.00,0.09,0.05
-0.00,0.09,0.05,-0.00,0.09,0.05
0.00,0.09,0.05,0.00,0.09,0.05
0.00,0.09,0.05,0.01,0.09,0.05
0.00,0.09,0.05,0.00,0.09,0.05
0.00,0.09,0.05,0.00,0.09,0.05
-0.00,0.09,0.05,0.00,0.09,0.05
-0.01,0.09,0.04,-0.00,0.09,0.04
-0.01,0.09,0.05,-0.01,0.09,0.04
-0.01,0.09,0.04,-0.01,0.09,0.05
-0.02,0.09,0.05,-0.02,0.09,0.05
-0.02,0.09,0.05,-0.02,0.09,0.05
-0.01,0.09,0.05,-0.02,0.08,0.05
-0.01,0.08,0.05,-0.01,0.09,0.05
-0.01,0.09,0.05,-0.01,0.09,0.05
-0.01,0.09,0.05,-0.01,0.08,0.05
-0.01,0.09,0.05,-0.01,0.09,0.05
-0.01,0.08,0.05,-0.01,0.09,0.05
-0.01,0.09,0.05,-0.01,0.09,0.05
-0.01,0.09,0.05,-0.00,0.09,0.05
-0.00,0.08,0.05,-0.00,0.09,0.05
0.00,0.09,0.05,0.00,0.09,0.05
0.00,0.09,0.05,0.00,0.09,0.05
-0.00,0.09,0.05,-0.00,0.09,0.05
-0.00,0.09,0.05,-0.00,0.09,0.05
-0.01,0.09,0.05,-0.01,0.09,0.05
-0.01,0.09,0.05,-0.01,0.09,0.05
-0.01,0.09,0.05,-0.01,0.09,0.05
-0.01,0.09,0.05,-0.01,0.09,0.05
-0.01,0.09,0.05,-0.01,0.09,0.05
-0.01,0.09,0.05,-0.01,0.09,0.05
-0.01,0.09,0.04,-0.01,0.08,0.05
-0.01,0.09,0.04,-0.01,0.09,0.05
-0.01,0.09,0.05,-0.01,0.09,0.05
-0.01,0.09,0.05,-0.00,0.09,0.05
-0.01,0.09,0.05,-0.00,0.09,0.05
-0.01,0.09,0.05,-0.00,0.09,0.05
-0.00,0.09,0.05,-0.00,0.09,0.05
-0.01,0.09,0.05,-0.01,0.09,0.05
-0.01,0.09,0.05,-0.01,0.09,0.05
-0.01,0.09,0.05,-0.00,0.09,0.05
-0.01,0.09,0.05,-0.01,0.09,0.04
-0.01,0.09,0.05,-0.01,0.09,0.05
-0.01,0.09,0.05,-0.01,0.09,0.05
-0.01,0.09,0.05,-0.01,0.09,0.05
-0.01,0.09,0.05,-0.00,0.09,0.05
-0.01,0.09,0.05,-0.01,0.09,0.05
-0.01,0.09,0.05,-0.01,0.09,0.05
-0.01,0.09,0.05,-0.01,0.09,0.05
-0.01,0.08,0.05,-0.01,0.09,0.05
-0.01,0.09,0.05,-0.01,0.09,0.05
-0.01,0.09,0.04,-0.01,0.09,0.05
-0.01,0.09,0.05,-0.01,0.09,0.05
-0.01,0.09,0.04,-0.01,0.09,0.05
-0.01,0.09,0.04,-0.01,0.09,0.05
-0.00,0.09,0.05,-0.00,0.09,0.04
-0.01,0.09,0.05,-0.01,0.09,0.05
-0.00,0.09,0.05,-0.01,0.09,0.05
-0.01,0.09,0.05,-0.01,0.09,0.05
-0.00,0.09,0.05,-0.01,0.09,0.05
-0.01,0.09,0.05,-0.01,0.09,0.05
-0.01,0.09,0.05,-0.01,0.09,0.05
-0.01,0.09,0.05,-0.01,0.09,0.05
-0.01,0.09,0.05,-0.01,0.09,0.05
-0.01,0.09,0.05,-0.01,0.09,0.05
-0.01,0.09,0.05,-0.01,0.09,0.05
-0.01,0.09,0.04,-0.01,0.09,0.05
-0.01,0.09,0.05,-0.01,0.09,0.05
-0.01,0.09,0.05,-0.01,0.09,0.05
-0.01,0.09,0.05,-0.01,0.09,0.05
-0.01,0.09,0.05,-0.01,0.09,0.05
-0.00,0.09,0.05,-0.00,0.09,0.05
-0.01,0.09,0.05,-0.00,0.09,0.05
-0.01,0.09,0.05,-0.00,0.09,0.05
-0.01,0.09,0.05,-0.01,0.09,0.05
-0.00,0.09,0.05,-0.01,0.08,0.05
-0.01,0.09,0.05,-0.01,0.09,0.05
-0.01,0.09,0.05,-0.01,0.09,0.05
-0.01,0.09,0.04,-0.01,0.09,0.04
-0.01,0.09,0.04,-0.01,0.09,0.05
-0.01,0.08,0.05,-0.01,0.08,0.05
-0.01,0.09,0.04,-0.01,0.09,0.05
-0.01,0.09,0.05,-0.01,0.09,0.05
-0.01,0.09,0.05,-0.01,0.09,0.05
-0.00,0.09,0.05,-0.01,0.09,0.05
-0.01,0.09,0.05,-0.01,0.09,0.05
-0.01,0.09,0.05,-0.01,0.09,0.05
-0.01,0.09,0.05,-0.01,0.09,0.05
-0.01,0.09,0.05,-0.01,0.09,0.05
-0.01,0.09,0.05,-0.01,0.09,0.05
-0.01,0.09,0.05,-0.01,0.09,0.05
-0.01,0.09,0.04,-0.01,0.09,0.05
-0.01,0.09,0.05,-0.01,0.09,0.05
-0.00,0.09,0.05,-0.00,0.09,0.05
-0.01,0.09,0.05,-0.01,0.09,0.05
-0.00,0.09,0.04,-0.01,0.09,0.05
-0.00,0.09,0.05,-0.00,0.09,0.05
-0.00,0.09,0.05,-0.01,0.09,0.05
-0.01,0.09,0.05,-0.00,0.09,0.05
-0.00,0.09,0.05,-0.00,0.09,0.05
-0.01,0.09,0.05,-0.01,0.09,0.05
-0.00,0.09,0.05,-0.01,0.09,0.04
-0.00,0.09,0.04,-0.01,0.09,0.05
-0.01,0.09,0.05,-0.01,0.09,0.05
-0.01,0.09,0.05,-0.01,0.09,0.05
-0.01,0.09,0.05,-0.01,0.09,0.05
-0.01,0.09,0.05,-0.01,0.09,0.05
-0.00,0.09,0.05,-0.01,0.09,0.05
-0.00,0.09,0.05,-0.00,0.09,0.05
-0.00,0.09,0.05,-0.00,0.09,0.05
-0.00,0.09,0.05,-0.00,0.09,0.05
-0.00,0.09,0.05,0.00,0.09,0.05
-0.00,0.09,0.05,0.00,0.09,0.05
0.00,0.09,0.05,-0.00,0.09,0.05
0.00,0.09,0.05,-0.00,0.09,0.05
-0.00,0.09,0.05,-0.00,0.09,0.05
-0.00,0.09,0.05,-0.00,0.09,0.05
-0.01,0.09,0.05,-0.01,0.09,0.05
-0.01,0.09,0.05,-0.01,0.09,0.05
-0.01,0.09,0.05,-0.01,0.09,0.04
-0.01,0.09,0.05,-0.01,0.09,0.05
-0.01,0.09,0.05,-0.01,0.09,0.04
-0.01,0.08,0.05,-0.01,0.09,0.04
-0.01,0.09,0.04,-0.01,0.09,0.04
-0.01,0.09,0.04,-0.01,0.09,0.04
-0.01,0.09,0.04,-0.01,0.09,0.04
-0.01,0.09,0.05,-0.01,0.09,0.04
-0.00,0.09,0.04,-0.00,0.09,0.04
0.00,0.09,0.04,-0.00,0.09,0.05
-0.00,0.09,0.05,0.01,0.09,0.04
0.00,0.09,0.05,0.00,0.09,0.05
0.01,0.09,0.05,0.01,0.09,0.05
0.00,0.08,0.05,0.01,0.07,0.05
0.01,0.08,0.05,-0.00,0.09,0.05
-0.00,0.09,0.05,-0.00,0.09,0.05
-0.01,0.09,0.05,-0.01,0.09,0.05
-0.01,0.09,0.05,-0.01,0.09,0.05
-0.01,0.09,0.05,-0.01,0.09,0.05
-0.02,0.09,0.05,-0.02,0.09,0.05
-0.02,0.09,0.05,-0.01,0.09,0.05
-0.02,0.08,0.05,-0.02,0.08,0.05
-0.02,0.08,0.05,-0.02,0.09,0.05
-0.02,0.09,0.05,-0.02,0.09,0.05
-0.02,0.09,0.05,-0.02,0.09,0.05
-0.01,0.09,0.05,-0.01,0.09,0.05
-0.01,0.09,0.05,-0.01,0.09,0.05
-0.01,0.09,0.04,-0.01,0.09,0.05
-0.01,0.09,0.05,-0.01,0.09,0.05
-0.01,0.09,0.05,-0.01,0.09,0.05
-0.00,0.09,0.05,-0.00,0.09,0.04
-0.00,0.09,0.04,0.00,0.09,0.04
-0.00,0.09,0.05,-0.00,0.09,0.04
0.00,0.09,0.04,-0.01,0.09,0.04
-0.00,0.09,0.04,-0.00,0.09,0.04
-0.00,0.09,0.05,-0.01,0.09,0.05
-0.01,0.09,0.05,-0.01,0.09,0.04
-0.01,0.09,0.04,-0.01,0.09,0.05
-0.01,0.09,0.05,-0.01,0.09,0.05
-0.01,0.09,0.05,-0.01,0.09,0.05
-0.01,0.09,0.04,-0.01,0.09,0.05
-0.01,0.09,0.04,-0.01,0.09,0.04
-0.01,0.09,0.04,-0.01,0.09,0.04
-0.01,0.08,0.04,-0.01,0.09,0.04
-0.01,0.09,0.04,-0.01,0.09,0.04
-0.00,0.09,0.04,-0.00,0.09,0.04
-0.00,0.09,0.05,0.00,0.09,0.04
0.00,0.09,0.04,0.00,0.09,0.05
0.00,0.09,0.05,0.00,0.09,0.05
0.00,0.09,0.05,0.00,0.09,0.05
0.00,0.09,0.05,0.00,0.09,0.05
0.00,0.09,0.05,0.00,0.09,0.05
-0.00,0.09,0.05,-0.00,0.09,0.05
-0.01,0.09,0.05,-0.01,0.09,0.05
-0.01,0.09,0.05,-0.01,0.09,0.05
-0.01,0.09,0.05,-0.01,0.08,0.05
-0.01,0.09,0.04,-0.01,0.09,0.05
-0.01,0.08,0.05,-0.01,0.08,0.05
-0.01,0.08,0.05,-0.01,0.09,0.05
-0.01,0.09,0.05,-0.01,0.08,0.05
-0.01,0.09,0.05,-0.01,0.09,0.05
-0.01,0.09,0.05,-0.01,0.09,0.05
-0.01,0.09,0.05,-0.01,0.09,0.05
-0.01,0.09,0.05,-0.01,0.09,0.04
-0.01,0.09,0.05,-0.00,0.09,0.05
-0.00,0.09,0.04,-0.00,0.09,0.05
-0.00,0.09,0.05,-0.00,0.09,0.05
0.00,0.09,0.05,-0.00,0.09,0.05
0.00,0.09,0.05,-0.00,0.09,0.04
-0.00,0.09,0.05,0.00,0.09,0.05
-0.01,0.09,0.05,-0.00,0.08,0.05
-0.01,0.09,0.05,-0.01,0.09,0.05
-0.01,0.09,0.04,-0.01,0.09,0.05
-0.01,0.09,0.05,-0.01,0.09,0.04
-0.01,0.09,0.05,-0.02,0.09,0.05
-0.01,0.09,0.05,-0.01,0.09,0.05
-0.01,0.09,0.05,-0.01,0.09,0.05
-0.01,0.09,0.05,-0.01,0.08,0.05
-0.01,0.09,0.05,-0.01,0.09,0.05
-0.01,0.09,0.05,-0.01,0.09,0.05
-0.01,0.09,0.05,-0.01,0.09,0.05
-0.01,0.09,0.05,-0.00,0.09,0.04
-0.00,0.09,0.05,-0.00,0.09,0.05
-0.01,0.09,0.05,-0.00,0.09,0.05
-0.00,0.09,0.05,-0.00,0.09,0.05
-0.00,0.09,0.05,-0.00,0.09,0.05
-0.00,0.09,0.05,-0.00,0.09,0.05
-0.01,0.09,0.05,-0.00,0.09,0.05
-0.01,0.09,0.05,-0.01,0.09,0.05
-0.00,0.09,0.05,-0.01,0.09,0.05
-0.01,0.09,0.05,-0.01,0.08,0.05
-0.01,0.09,0.05,-0.01,0.09,0.05
-0.01,0.09,0.05,-0.01,0.09,0.05
-0.01,0.09,0.05,-0.01,0.09,0.05
-0.01,0.09,0.05,-0.01,0.09,0.04
-0.01,0.09,0.05,-0.01,0.08,0.05
-0.01,0.09,0.05,-0.01,0.09,0.05
-0.01,0.09,0.05,-0.01,0.09,0.05
-0.00,0.08,0.05,-0.01,0.09,0.05
-0.00,0.09,0.05,-0.01,0.09,0.05
-0.01,0.09,0.05,-0.00,0.09,0.05
-0.01,0.09,0.05,-0.01,0.09,0.05
-0.00,0.08,0.05,-0.00,0.08,0.04
-0.01,0.09,0.05,-0.00,0.09,0.05
-0.00,0.09,0.04,-0.01,0.09,0.05
-0.00,0.09,0.04,-0.01,0.08,0.04
-0.01,0.09,0.04,-0.01,0.08,0.04
-0.01,0.08,0.04,-0.01,0.08,0.04
-0.01,0.08,0.04,-0.02,0.09,0.04
-0.02,0.08,0.04,-0.02,0.08,0.03
-0.02,0.08,0.04,-0.03,0.08,0.03
-0.02,0.08,0.03,-0.02,0.08,0.03
-0.02,0.09,0.04,-0.02,0.09,0.04
-0.01,0.08,0.04,-0.01,0.08,0.04
-0.02,0.07,0.04,-0.02,0.07,0.04
-0.02,0.08,0.05,-0.02,0.08,0.05
-0.02,0.08,0.05,-0.02,0.08,0.05
-0.02,0.08,0.05,-0.02,0.09,0.05
-0.01,0.08,0.05,-0.01,0.08,0.05
-0.01,0.08,0.05,-0.01,0.08,0.05
-0.00,0.08,0.05,-0.00,0.08,0.05
-0.00,0.09,0.05,-0.00,0.09,0.04
-0.00,0.08,0.05,-0.00,0.09,0.05
-0.00,0.09,0.05,-0.01,0.09,0.05
-0.01,0.09,0.05,-0.01,0.09,0.05
-0.01,0.09,0.05,-0.01,0.09,0.05
-0.01,0.09,0.05,-0.01,0.09,0.05
-0.02,0.09,0.04,-0.02,0.09,0.05
-0.01,0.07,0.05,-0.01,0.08,0.05
-0.03,0.08,0.05,-0.04,0.06,0.04
-0.03,0.07,0.04,-0.03,0.08,0.05
-0.03,0.09,0.04,-0.02,0.09,0.04
-0.02,0.10,0.05,-0.02,0.11,0.05
-0.01,0.09,0.05,-0.01,0.07,0.05
-0.00,0.07,0.06,0.01,0.08,0.06
0.01,0.09,0.06,0.01,0.10,0.06
0.01,0.10,0.07,0.02,0.10,0.07
0.02,0.10,0.06,0.02,0.10,0.06
0.02,0.10,0.06,0.02,0.10,0.06
0.02,0.09,0.05,0.01,0.09,0.05
0.01,0.09,0.05,0.00,0.08,0.04
0.00,0.09,0.04,-0.01,0.09,0.04
-0.01,0.09,0.04,-0.02,0.09,0.03
-0.02,0.09,0.04,-0.02,0.09,0.04
-0.02,0.09,0.04,-0.02,0.09,0.04
-0.02,0.09,0.05,-0.02,0.08,0.05
-0.02,0.08,0.05,-0.01,0.08,0.05
-0.01,0.09,0.05,-0.01,0.09,0.06
-0.00,0.09,0.06,-0.00,0.09,0.06
0.00,0.08,0.06,0.00,0.09,0.05
0.00,0.09,0.05,0.01,0.09,0.06
0.01,0.09,0.05,0.01,0.09,0.05
0.01,0.09,0.04,0.00,0.09,0.05
0.00,0.09,0.04,0.00,0.09,0.04
0.00,0.09,0.04,-0.00,0.09,0.04
-0.00,0.09,0.04,-0.01,0.09,0.04
-0.00,0.09,0.04,-0.01,0.09,0.04
-0.01,0.09,0.05,-0.01,0.09,0.04
-0.01,0.09,0.05,-0.01,0.09,0.05
-0.01,0.09,0.05,-0.01,0.09,0.05
-0.01,0.09,0.05,-0.01,0.09,0.05
-0.01,0.09,0.05,-0.01,0.09,0.05
-0.01,0.08,0.05,-0.01,0.08,0.05
-0.01,0.08,0.05,-0.01,0.09,0.05
-0.01,0.09,0.05,-0.01,0.09,0.05
-0.01,0.09,0.04,-0.01,0.09,0.04
-0.01,0.09,0.05,-0.01,0.09,0.05
-0.01,0.08,0.04,-0.01,0.09,0.05
-0.00,0.08,0.05,-0.01,0.09,0.05
-0.00,0.09,0.05,-0.00,0.09,0.05
-0.00,0.09,0.05,-0.01,0.09,0.05
-0.01,0.09,0.05,-0.01,0.09,0.05
-0.01,0.09,0.05,-0.01,0.09,0.05
-0.01,0.09,0.05,-0.01,0.09,0.05
-0.01,0.09,0.05,-0.01,0.09,0.05
-0.02,0.09,0.05,-0.02,0.09,0.05
-0.02,0.09,0.04,-0.02,0.09,0.04
-0.02,0.08,0.04,-0.02,0.08,0.04
-0.02,0.08,0.04,-0.02,0.08,0.04
-0.01,0.09,0.04,-0.02,0.08,0.04
-0.01,0.08,0.04,-0.01,0.09,0.05
-0.01,0.09,0.05,-0.01,0.09,0.05
-0.01,0.09,0.05,-0.00,0.09,0.05
-0.01,0.09,0.05,-0.00,0.09,0.05
-0.00,0.09,0.05,-0.00,0.09,0.05
0.00,0.09,0.05,-0.00,0.09,0.05
-0.00,0.09,0.05,0.00,0.09,0.05
-0.00,0.09,0.05,-0.01,0.09,0.05
-0.00,0.09,0.04,-0.01,0.09,0.04
-0.01,0.09,0.04,-0.01,0.09,0.04
-0.01,0.09,0.04,-0.01,0.09,0.05
-0.01,0.09,0.05,-0.01,0.09,0.05
-0.01,0.09,0.04,-0.01,0.09,0.04
-0.01,0.09,0.04,-0.01,0.09,0.05
-0.01,0.09,0.05,-0.01,0.09,0.05
-0.01,0.08,0.05,-0.01,0.09,0.05
-0.01,0.08,0.05,-0.01,0.08,0.05
-0.01,0.08,0.05,-0.01,0.09,0.05
-0.01,0.09,0.05,-0.00,0.09,0.05
-0.00,0.09,0.05,-0.01,0.09,0.05
-0.00,0.09,0.05,-0.00,0.09,0.05
-0.00,0.09,0.05,-0.00,0.09,0.05
-0.00,0.09,0.05,0.00,0.09,0.05
-0.00,0.09,0.05,-0.00,0.09,0.04
-0.00,0.09,0.05,-0.01,0.09,0.05
-0.01,0.09,0.05,-0.01,0.09,0.05
-0.01,0.09,0.05,-0.01,0.08,0.05
-0.01,0.09,0.05,-0.01,0.09,0.05
-0.01,0.08,0.05,-0.01,0.09,0.05
-0.01,0.09,0.05,-0.01,0.09,0.05
-0.01,0.09,0.05,-0.01,0.09,0.05
-0.01,0.09,0.05,-0.01,0.09,0.05
-0.01,0.09,0.05,-0.01,0.09,0.05
-0.01,0.09,0.05,-0.01,0.09,0.05
-0.01,0.09,0.05,-0.01,0.09,0.05
-0.01,0.09,0.05,-0.01,0.08,0.04
-0.01,0.09,0.04,-0.01,0.09,0.05
-0.01,0.09,0.04,-0.01,0.09,0.05
-0.01,0.09,0.05,-0.01,0.09,0.05
-0.01,0.09,0.05,-0.01,0.09,0.05
-0.01,0.09,0.05,-0.01,0.09,0.04
-0.01,0.09,0.05,-0.01,0.09,0.05
-0.01,0.09,0.05,-0.01,0.09,0.05
-0.01,0.09,0.05,-0.01,0.09,0.05
-0.01,0.09,0.05,-0.00,0.09,0.05
-0.01,0.09,0.05,-0.01,0.09,0.05
-0.01,0.09,0.05,-0.00,0.09,0.05
-0.00,0.09,0.05,-0.01,0.09,0.05
-0.00,0.09,0.05,-0.00,0.09,0.05
-0.01,0.09,0.05,-0.00,0.09,0.05
-0.00,0.09,0.05,-0.00,0.09,0.05
-0.00,0.09,0.04,-0.00,0.09,0.05
-0.01,0.09,0.04,-0.01,0.09,0.04
-0.01,0.09,0.05,-0.01,0.09,0.05
-0.01,0.09,0.05,-0.01,0.08,0.05
-0.01,0.09,0.05,-0.01,0.09,0.05
-0.01,0.09,0.05,-0.01,0.09,0.05
-0.01,0.08,0.05,-0.01,0.09,0.05
-0.01,0.09,0.05,-0.01,0.09,0.05
-0.01,0.08,0.05,-0.01,0.09,0.05
-0.01,0.09,0.05,-0.01,0.09,0.05
-0.00,0.09,0.05,-0.01,0.09,0.05
-0.01,0.09,0.05,-0.00,0.09,0.05
-0.01,0.09,0.05,-0.00,0.09,0.05
-0.00,0.09,0.05,-0.01,0.09,0.05
-0.00,0.09,0.05,-0.01,0.09,0.05
-0.00,0.09,0.05,-0.00,0.09,0.05
-0.00,0.09,0.05,-0.01,0.09,0.05
-0.01,0.09,0.05,-0.01,0.09,0.05
-0.01,0.09,0.05,-0.01,0.08,0.05
-0.01,0.09,0.05,-0.01,0.09,0.05
-0.00,0.09,0.05,-0.01,0.09,0.05
-0.01,0.09,0.05,-0.00,0.09,0.05
-0.00,0.09,0.05,-0.00,0.09,0.05
-0.00,0.09,0.05,-0.00,0.09,0.05
-0.00,0.09,0.05,-0.00,0.09,0.04
-0.01,0.09,0.05,-0.01,0.09,0.04
-0.00,0.08,0.04,-0.01,0.08,0.05
-0.01,0.09,0.05,-0.01,0.09,0.05
-0.01,0.09,0.05,-0.01,0.09,0.05
-0.01,0.09,0.05,-0.01,0.09,0.05
-0.01,0.09,0.05,-0.01,0.09,0.05
-0.01,0.09,0.05,-0.01,0.08,0.05
-0.01,0.09,0.05,-0.01,0.08,0.05
-0.01,0.09,0.05,-0.01,0.09,0.05
-0.01,0.09,0.05,-0.01,0.09,0.04
-0.01,0.09,0.05,-0.01,0.09,0.05
-0.01,0.09,0.05,-0.01,0.09,0.04
-0.01,0.09,0.05,-0.01,0.09,0.05
-0.00,0.09,0.05,-0.00,0.09,0.05
-0.00,0.09,0.05,-0.01,0.09,0.05
-0.00,0.09,0.05,-0.01,0.09,0.05
-0.01,0.09,0.05,-0.01,0.09,0.05
-0.01,0.09,0.05,-0.01,0.09,0.04
-0.01,0.09,0.05,-0.01,0.09,0.05
-0.01,0.09,0.05,-0.01,0.09,0.05
-0.00,0.09,0.05,-0.01,0.09,0.05
-0.01,0.09,0.05,-0.01,0.08,0.05
-0.00,0.09,0.05,-0.01,0.09,0.05
-0.01,0.09,0.05,-0.01,0.09,0.05
-0.01,0.09,0.05,-0.01,0.09,0.04
-0.01,0.09,0.04,-0.01,0.09,0.05
-0.01,0.09,0.05,-0.01,0.09,0.05
-0.00,0.09,0.05,-0.01,0.08,0.05
-0.01,0.09,0.05,-0.00,0.09,0.04
-0.00,0.09,0.05,-0.00,0.09,0.05
-0.00,0.09,0.05,-0.00,0.09,0.05
-0.00,0.09,0.05,-0.00,0.09,0.05
-0.01,0.09,0.05,-0.01,0.08,0.05
-0.01,0.09,0.05,-0.01,0.09,0.05
-0.01,0.09,0.05,-0.01,0.09,0.05
-0.01,0.09,0.05,-0.01,0.09,0.05
-0.00,0.09,0.05,-0.01,0.09,0.05
-0.01,0.09,0.05,-0.01,0.09,0.05
-0.01,0.09,0.05,-0.00,0.09,0.05
-0.01,0.09,0.04,-0.01,0.09,0.04
-0.01,0.08,0.05,-0.01,0.09,0.04
-0.01,0.09,0.05,-0.01,0.09,0.05
-0.00,0.09,0.05,-0.01,0.09,0.05
-0.01,0.09,0.04,-0.01,0.09,0.05
-0.01,0.09,0.05,-0.01,0.09,0.05
-0.01,0.09,0.05,-0.01,0.09,0.05
-0.01,0.09,0.05,-0.01,0.09,0.04
-0.01,0.09,0.05,-0.01,0.09,0.05
-0.01,0.09,0.05,-0.01,0.09,0.05
-0.01,0.09,0.05,-0.01,0.09,0.05
-0.01,0.09,0.05,-0.01,0.09,0.05
-0.01,0.09,0.05,-0.01,0.09,0.05
-0.01,0.09,0.05,-0.00,0.09,0.05
-0.01,0.09,0.05,-0.01,0.09,0.05
-0.01,0.09,0.05,-0.01,0.09,0.05
-0.01,0.09,0.04,-0.01,0.09,0.05
-0.00,0.09,0.05,-0.00,0.09,0.05
-0.00,0.09,0.05,-0.00,0.09,0.05
-0.00,0.09,0.04,-0.01,0.09,0.05
-0.00,0.09,0.05,-0.01,0.09,0.05
-0.00,0.09,0.05,-0.01,0.09,0.05
-0.01,0.08,0.05,-0.00,0.09,0.05
-0.01,0.08,0.05,-0.01,0.09,0.05
-0.01,0.08,0.05,-0.01,0.09,0.05
-0.01,0.09,0.05,-0.01,0.09,0.05
-0.01,0.09,0.04,-0.01,0.09,0.05
-0.01,0.09,0.05,-0.01,0.09,0.05
-0.01,0.09,0.05,-0.01,0.09,0.05
-0.01,0.09,0.05,-0.01,0.09,0.05
-0.01,0.09,0.05,-0.01,0.09,0.04
-0.01,0.09,0.05,-0.01,0.09,0.05
-0.01,0.09,0.05,-0.01,0.09,0.05
-0.01,0.09,0.04,-0.01,0.09,0.05
-0.01,0.09,0.05,-0.01,0.09,0.05
-0.01,0.09,0.05,-0.01,0.08,0.05
-0.01,0.09,0.05,-0.00,0.09,0.05
-0.01,0.09,0.05,-0.01,0.09,0.05
-0.01,0.09,0.05,-0.01,0.09,0.05
-0.00,0.09,0.05,-0.01,0.09,0.05
-0.01,0.09,0.05,-0.01,0.09,0.05
-0.01,0.09,0.05,-0.01,0.09,0.05
-0.01,0.09,0.05,-0.01,0.09,0.05
-0.01,0.09,0.05,-0.01,0.09,0.05
-0.00,0.09,0.05,-0.00,0.09,0.05
-0.00,0.09,0.05,-0.00,0.09,0.05
-0.00,0.09,0.05,0.00,0.09,0.05
-0.00,0.09,0.05,-0.00,0.09,0.05
-0.00,0.09,0.05,-0.00,0.09,0.05
-0.00,0.09,0.05,-0.00,0.09,0.04
-0.00,0.09,0.05,-0.01,0.09,0.05
-0.01,0.09,0.04,-0.01,0.09,0.04
-0.01,0.09,0.05,-0.01,0.09,0.04
-0.01,0.09,0.05,-0.01,0.09,0.04
-0.01,0.09,0.05,-0.01,0.09,0.05
-0.01,0.09,0.05,-0.01,0.09,0.05
-0.01,0.09,0.05,-0.01,0.09,0.05
-0.01,0.09,0.05,-0.00,0.09,0.05
-0.00,0.09,0.05,-0.01,0.09,0.05
-0.01,0.09,0.04,-0.01,0.09,0.05
-0.00,0.09,0.05,-0.01,0.09,0.04
-0.01,0.09,0.05,-0.01,0.09,0.04
-0.01,0.09,0.05,-0.01,0.09,0.05
-0.01,0.09,0.04,-0.01,0.09,0.04
-0.01,0.09,0.04,-0.01,0.09,0.05
-0.01,0.09,0.05,-0.01,0.09,0.05
-0.01,0.08,0.05,-0.01,0.09,0.05
-0.01,0.08,0.05,-0.01,0.09,0.05
-0.01,0.08,0.05,-0.01,0.08,0.05
-0.01,0.09,0.05,-0.01,0.09,0.05
-0.01,0.09,0.05,-0.01,0.09,0.05
-0.01,0.09,0.05,-0.01,0.09,0.05
-0.01,0.09,0.05,-0.01,0.09,0.05
-0.01,0.09,0.05,-0.01,0.09,0.05
-0.00,0.09,0.05,-0.00,0.09,0.05
-0.01,0.09,0.05,-0.01,0.09,0.05
-0.01,0.09,0.05,-0.00,0.09,0.05
-0.01,0.09,0.05,-0.00,0.09,0.05
-0.01,0.09,0.05,-0.00,0.09,0.05
-0.01,0.09,0.05,-0.01,0.09,0.05
-0.01,0.09,0.05,-0.01,0.09,0.05
-0.01,0.09,0.05,-0.01,0.09,0.05
-0.01,0.09,0.05,-0.00,0.09,0.05
-0.01,0.09,0.05,-0.01,0.09,0.05
-0.01,0.09,0.05,-0.01,0.08,0.05
-0.01,0.09,0.05,-0.01,0.09,0.05
-0.01,0.09,0.05,-0.01,0.09,0.05
-0.01,0.09,0.05,-0.01,0.09,0.04
-0.01,0.09,0.05,-0.01,0.09,0.05
-0.01,0.09,0.05,-0.01,0.09,0.04
-0.01,0.09,0.05,-0.01,0.09,0.05
-0.01,0.08,0.05,-0.01,0.09,0.05
-0.01,0.08,0.04,-0.01,0.08,0.05
-0.01,0.08,0.04,-0.01,0.09,0.05
-0.01,0.09,0.05,-0.01,0.08,0.05
-0.00,0.09,0.05,-0.00,0.09,0.05
-0.00,0.09,0.05,-0.00,0.09,0.05
-0.01,0.09,0.05,-0.00,0.09,0.05
-0.01,0.09,0.05,-0.01,0.09,0.05
-0.01,0.09,0.05,-0.00,0.09,0.05
-0.00,0.08,0.04,-0.01,0.09,0.05
-0.01,0.08,0.05,-0.01,0.09,0.05
-0.01,0.09,0.05,-0.01,0.09,0.05
-0.01,0.09,0.05,-0.01,0.09,0.05
-0.01,0.09,0.05,-0.01,0.09,0.05
-0.01,0.08,0.05,-0.01,0.08,0.05
-0.01,0.09,0.05,-0.00,0.09,0.05
-0.01,0.09,0.05,-0.01,0.09,0.05
-0.01,0.09,0.05,-0.01,0.09,0.05
-0.01,0.09,0.04,-0.01,0.09,0.05
-0.01,0.09,0.05,-0.01,0.09,0.05
-0.01,0.09,0.05,-0.01,0.09,0.05
-0.01,0.09,0.05,-0.01,0.09,0.05
-0.01,0.09,0.05,-0.01,0.09,0.05
-0.01,0.09,0.05,-0.01,0.09,0.05
-0.01,0.09,0.05,-0.00,0.09,0.05
-0.01,0.09,0.05,-0.01,0.09,0.05
-0.00,0.09,0.05,-0.01,0.09,0.05
-0.01,0.09,0.05,-0.00,0.09,0.05
-0.00,0.09,0.05,-0.00,0.09,0.05
0.00,0.09,0.05,-0.00,0.09,0.05
-0.00,0.09,0.05,0.00,0.09,0.05
0.00,0.09,0.05,0.00,0.09,0.05
0.00,0.09,0.05,0.00,0.09,0.05
0.00,0.09,0.04,-0.00,0.09,0.04
0.00,0.09,0.05,-0.01,0.09,0.05
-0.00,0.09,0.05,-0.01,0.09,0.04
-0.01,0.09,0.04,-0.01,0.09,0.04
-0.01,0.09,0.04,-0.01,0.09,0.05
-0.01,0.09,0.05,-0.01,0.09,0.05
-0.01,0.09,0.05,-0.01,0.09,0.05
-0.01,0.09,0.05,-0.01,0.09,0.05
-0.01,0.09,0.05,-0.01,0.08,0.05
-0.01,0.08,0.05,-0.00,0.09,0.05
0.00,0.09,0.05,0.00,0.09,0.05
0.00,0.08,0.05,0.00,0.08,0.05
-0.00,0.08,0.05,-0.00,0.09,0.05
-0.00,0.09,0.04,-0.01,0.09,0.04
-0.01,0.09,0.04,-0.01,0.09,0.04
-0.01,0.09,0.04,-0.01,0.09,0.04
-0.01,0.09,0.05,-0.01,0.09,0.05
-0.01,0.09,0.05,-0.01,0.08,0.05
-0.01,0.08,0.05,-0.00,0.09,0.05
-0.01,0.09,0.05,-0.00,0.09,0.05
-0.00,0.09,0.05,-0.00,0.09,0.05
-0.01,0.08,0.05,-0.01,0.08,0.05
-0.01,0.09,0.05,-0.01,0.09,0.05
-0.01,0.09,0.05,-0.01,0.09,0.05
-0.01,0.09,0.05,-0.01,0.09,0.05
-0.01,0.09,0.05,-0.01,0.09,0.05
-0.01,0.09,0.05,-0.01,0.09,0.04
-0.01,0.09,0.05,-0.01,0.08,0.04
-0.01,0.09,0.04,-0.00,0.08,0.05
-0.01,0.09,0.04,-0.01,0.09,0.05
-0.01,0.09,0.05,-0.01,0.09,0.05
-0.01,0.09,0.05,-0.01,0.09,0.05
-0.01,0.09,0.05,-0.01,0.09,0.05
-0.01,0.09,0.05,-0.01,0.08,0.05
-0.01,0.09,0.05,-0.01,0.09,0.05
-0.00,0.09,0.04,-0.01,0.08,0.05
-0.00,0.09,0.05,-0.00,0.09,0.05
-0.01,0.09,0.05,-0.00,0.09,0.05
-0.01,0.09,0.04,-0.01,0.09,0.05
-0.01,0.09,0.05,-0.01,0.09,0.05
-0.01,0.09,0.05,-0.01,0.09,0.05
-0.01,0.09,0.05,-0.01,0.09,0.05
-0.01,0.09,0.05,-0.01,0.09,0.05
-0.01,0.09,0.05,-0.01,0.09,0.05
-0.01,0.09,0.05,-0.00,0.09,0.04
-0.00,0.09,0.05,-0.01,0.09,0.05
-0.01,0.09,0.05,-0.01,0.09,0.05
-0.01,0.09,0.05,-0.01,0.09,0.04
-0.00,0.09,0.05,-0.00,0.09,0.05
-0.00,0.09,0.05,-0.01,0.09,0.05
-0.00,0.09,0.05,-0.01,0.09,0.05
-0.00,0.08,0.05,-0.01,0.09,0.05
-0.00,0.09,0.05,-0.01,0.09,0.04
-0.01,0.09,0.05,-0.01,0.09,0.05
-0.01,0.09,0.04,-0.01,0.09,0.05
-0.01,0.09,0.04,-0.01,0.09,0.05
-0.01,0.08,0.04,-0.01,0.09,0.05
-0.01,0.09,0.04,-0.01,0.09,0.05
-0.01,0.09,0.05,-0.01,0.09,0.05
-0.01,0.09,0.05,-0.01,0.09,0.05
-0.01,0.08,0.05,-0.01,0.09,0.05
-0.01,0.09,0.05,-0.01,0.08,0.05
-0.01,0.09,0.05,-0.01,0.09,0.05
-0.01,0.09,0.05,-0.01,0.09,0.05
-0.01,0.08,0.05,-0.01,0.08,0.05
-0.01,0.09,0.05,-0.01,0.09,0.05
-0.01,0.09,0.05,-0.01,0.09,0.05
-0.01,0.09,0.04,-0.00,0.09,0.05
-0.01,0.09,0.05,-0.01,0.09,0.04
-0.01,0.09,0.04,-0.01,0.09,0.05
-0.01,0.09,0.05,-0.00,0.09,0.05
-0.01,0.09,0.05,-0.01,0.09,0.04
-0.01,0.09,0.05,-0.01,0.09,0.05
-0.01,0.09,0.05,-0.01,0.09,0.05
-0.01,0.09,0.05,-0.01,0.09,0.05
-0.01,0.09,0.05,-0.01,0.09,0.05
-0.01,0.09,0.05,-0.01,0.09,0.04
-0.01,0.09,0.05,-0.01,0.09,0.05
-0.01,0.09,0.05,-0.01,0.08,0.05
-0.01,0.09,0.05,-0.01,0.09,0.05
-0.01,0.09,0.05,-0.00,0.09,0.05
-0.00,0.09,0.05,-0.01,0.08,0.05
-0.00,0.09,0.05,-0.00,0.09,0.05
-0.01,0.09,0.05,-0.01,0.09,0.05
-0.00,0.09,0.05,-0.01,0.08,0.05
-0.01,0.09,0.05,-0.01,0.09,0.04
-0.01,0.09,0.05,-0.01,0.09,0.05
-0.01,0.09,0.05,-0.01,0.09,0.05
-0.01,0.09,0.05,-0.01,0.09,0.05
-0.01,0.09,0.05,-0.01,0.09,0.05
-0.01,0.08,0.04,-0.01,0.08,0.05
-0.01,0.09,0.05,-0.01,0.09,0.05
-0.01,0.09,0.05,-0.01,0.09,0.05
-0.01,0.09,0.05,-0.01,0.09,0.05
-0.01,0.09,0.05,-0.01,0.09,0.05
-0.01,0.09,0.05,-0.01,0.09,0.04
-0.01,0.09,0.05,-0.01,0.09,0.05
-0.01,0.08,0.05,-0.01,0.08,0.05
-0.01,0.09,0.05,-0.01,0.09,0.05
-0.01,0.09,0.05,-0.01,0.09,0.05
-0.01,0.09,0.04,-0.01,0.09,0.05
-0.01,0.09,0.05,-0.01,0.09,0.05
-0.01,0.09,0.05,-0.01,0.09,0.05
-0.01,0.09,0.05,-0.01,0.08,0.05
-0.01,0.09,0.05,-0.01,0.09,0.05
-0.01,0.08,0.05,-0.01,0.09,0.05
-0.00,0.09,0.05,-0.01,0.08,0.05
-0.01,0.09,0.05,-0.01,0.09,0.05
-0.01,0.09,0.05,-0.01,0.09,0.05
-0.01,0.09,0.05,-0.01,0.09,0.05
-0.01,0.09,0.05,-0.01,0.09,0.05
-0.01,0.09,0.05,-0.01,0.09,0.05
-0.01,0.09,0.05,-0.01,0.09,0.05
-0.01,0.09,0.05,-0.01,0.09,0.05
-0.01,0.09,0.05,-0.01,0.09,0.05
-0.01,0.09,0.05,-0.01,0.09,0.05
-0.01,0.09,0.05,-0.01,0.09,0.05
-0.01,0.09,0.05,-0.01,0.09,0.05
-0.01,0.09,0.05,-0.00,0.09,0.05
-0.01,0.09,0.05,-0.01,0.09,0.05
-0.00,0.09,0.05,-0.00,0.09,0.05
-0.01,0.09,0.05,-0.01,0.08,0.05
-0.01,0.09,0.05,-0.01,0.09,0.05
-0.01,0.09,0.05,-0.01,0.09,0.05
-0.01,0.09,0.05,-0.00,0.09,0.05
-0.01,0.09,0.05,-0.01,0.08,0.05
-0.01,0.09,0.05,-0.01,0.09,0.05
-0.01,0.09,0.05,-0.00,0.09,0.05
-0.01,0.09,0.04,-0.01,0.09,0.05
-0.01,0.09,0.05,-0.01,0.09,0.04
-0.01,0.09,0.05,-0.01,0.09,0.04
-0.01,0.09,0.05,-0.01,0.09,0.04
-0.01,0.09,0.05,-0.01,0.09,0.05
-0.01,0.09,0.05,-0.00,0.09,0.05
-0.01,0.09,0.05,-0.01,0.09,0.05
-0.00,0.09,0.05,-0.01,0.09,0.05
-0.01,0.09,0.05,-0.00,0.09,0.05
-0.01,0.09,0.05,-0.01,0.09,0.05
-0.01,0.09,0.05,-0.00,0.09,0.05
-0.00,0.09,0.05,-0.01,0.09,0.05
-0.01,0.09,0.05,-0.01,0.08,0.05
-0.01,0.09,0.05,-0.01,0.09,0.05
-0.01,0.08,0.05,-0.01,0.09,0.04
-0.01,0.09,0.05,-0.01,0.09,0.05
-0.01,0.09,0.05,-0.01,0.08,0.05
-0.01,0.09,0.05,-0.01,0.09,0.05
-0.01,0.09,0.04,-0.01,0.09,0.05
-0.01,0.09,0.05,-0.01,0.09,0.05
-0.01,0.09,0.05,-0.01,0.09,0.05
-0.01,0.09,0.05,-0.01,0.09,0.04
-0.01,0.09,0.05,-0.01,0.09,0.04
-0.01,0.09,0.05,-0.01,0.09,0.05
-0.01,0.09,0.05,-0.01,0.09,0.05
-0.01,0.09,0.05,-0.01,0.09,0.05
-0.01,0.09,0.05,-0.01,0.09,0.04
-0.01,0.09,0.05,-0.01,0.09,0.05
-0.01,0.09,0.05,-0.01,0.09,0.05
-0.01,0.09,0.05,-0.01,0.09,0.05
-0.01,0.09,0.05,-0.01,0.09,0.05
-0.01,0.09,0.05,-0.01,0.09,0.04
-0.01,0.09,0.05,-0.01,0.09,0.05
-0.01,0.09,0.05,-0.00,0.08,0.05
-0.01,0.09,0.05,-0.01,0.09,0.05
-0.01,0.09,0.05,-0.01,0.09,0.05
-0.01,0.09,0.05,-0.01,0.09,0.05
-0.01,0.09,0.05,-0.01,0.09,0.05
-0.01,0.09,0.05,-0.01,0.09,0.05
-0.01,0.09,0.05,-0.01,0.09,0.05
-0.01,0.09,0.05,-0.00,0.09,0.05
-0.00,0.09,0.05,-0.00,0.09,0.05
-0.00,0.08,0.05,0.00,0.09,0.05
-0.00,0.09,0.05,-0.00,0.09,0.05
-0.00,0.10,0.04,-0.00,0.10,0.05
-0.01,0.11,0.05,-0.01,0.07,0.05
0.01,0.04,0.05,0.01,0.06,0.05
0.01,0.09,0.05,0.01,0.11,0.05
0.01,0.13,0.06,0.02,0.13,0.06
0.02,0.10,0.06,0.01,0.08,0.06
0.02,0.07,0.06,0.01,0.08,0.06
0.01,0.09,0.06,-0.00,0.09,0.06
-0.01,0.09,0.05,-0.02,0.09,0.05
-0.02,0.08,0.05,-0.02,0.08,0.04
-0.03,0.07,0.04,-0.03,0.08,0.04
-0.03,0.08,0.03,-0.03,0.08,0.04
-0.02,0.08,0.04,-0.02,0.08,0.04
-0.01,0.08,0.04,-0.01,0.08,0.04
-0.00,0.08,0.04,-0.00,0.08,0.05
0.00,0.09,0.05,0.01,0.09,0.05
0.01,0.09,0.05,0.02,0.09,0.05
0.01,0.09,0.05,0.01,0.09,0.05
0.01,0.09,0.05,0.01,0.10,0.05
0.02,0.10,0.05,0.01,0.10,0.05
0.01,0.10,0.05,0.01,0.10,0.05
0.01,0.10,0.05,0.01,0.10,0.05
0.01,0.09,0.05,0.00,0.09,0.05
0.00,0.09,0.05,0.00,0.09,0.05
-0.00,0.09,0.05,-0.00,0.09,0.04
-0.01,0.09,0.04,-0.02,0.09,0.04
-0.02,0.09,0.04,-0.02,0.08,0.04
-0.02,0.08,0.05,-0.02,0.08,0.04
-0.02,0.09,0.05,-0.02,0.09,0.05
-0.01,0.09,0.04,-0.00,0.09,0.05
0.00,0.08,0.05,0.01,0.08,0.04
0.01,0.09,0.05,0.01,0.09,0.05
0.01,0.09,0.05,0.01,0.09,0.05
0.01,0.09,0.05,0.01,0.09,0.05
0.01,0.09,0.05,0.01,0.09,0.05
0.01,0.09,0.05,0.00,0.09,0.05
0.00,0.09,0.05,-0.00,0.09,0.05
0.00,0.10,0.05,-0.00,0.10,0.05
-0.00,0.09,0.05,0.00,0.09,0.05
-0.00,0.09,0.05,-0.00,0.08,0.05
-0.01,0.09,0.05,-0.01,0.09,0.05
-0.01,0.08,0.05,-0.02,0.08,0.05
-0.02,0.08,0.05,-0.02,0.08,0.05
-0.02,0.09,0.05,-0.02,0.09,0.05
-0.01,0.09,0.04,-0.01,0.08,0.04
-0.01,0.08,0.04,-0.01,0.07,0.04
-0.01,0.07,0.04,-0.01,0.08,0.04
-0.01,0.08,0.04,-0.02,0.09,0.04
-0.01,0.09,0.04,-0.01,0.09,0.04
-0.01,0.08,0.04,-0.01,0.08,0.05
-0.01,0.08,0.05,-0.01,0.09,0.05
-0.01,0.09,0.04,-0.01,0.09,0.05
-0.00,0.09,0.05,-0.01,0.09,0.05
-0.00,0.09,0.05,0.00,0.09,0.05
0.00,0.09,0.05,0.01,0.08,0.05
0.00,0.09,0.05,0.01,0.09,0.05
0.00,0.09,0.05,0.00,0.08,0.05
-0.00,0.09,0.04,-0.00,0.09,0.04
-0.01,0.09,0.04,-0.01,0.09,0.05
-0.01,0.08,0.05,-0.01,0.09,0.04
-0.02,0.09,0.04,-0.02,0.09,0.04
-0.02,0.09,0.04,-0.02,0.09,0.04
-0.02,0.09,0.04,-0.02,0.08,0.04
-0.02,0.07,0.04,-0.02,0.07,0.04
-0.02,0.07,0.04,-0.02,0.07,0.04
-0.02,0.08,0.04,-0.02,0.08,0.04
-0.02,0.08,0.04,-0.02,0.08,0.04
-0.02,0.08,0.04,-0.02,0.08,0.04
-0.02,0.07,0.04,-0.02,0.07,0.04
-0.01,0.07,0.04,-0.01,0.07,0.04
-0.02,0.08,0.04,-0.02,0.08,0.04
-0.02,0.08,0.04,-0.02,0.08,0.03
-0.02,0.08,0.04,-0.01,0.08,0.04
-0.01,0.08,0.04,-0.01,0.08,0.05
-0.01,0.09,0.04,-0.01,0.09,0.05
-0.01,0.08,0.05,-0.01,0.08,0.05
-0.01,0.09,0.05,-0.01,0.09,0.05
-0.01,0.09,0.05,-0.01,0.09,0.05
-0.01,0.09,0.05,-0.01,0.09,0.05
-0.00,0.08,0.05,-0.00,0.09,0.05
-0.00,0.09,0.04,-0.00,0.09,0.04
-0.00,0.09,0.04,-0.01,0.09,0.04
-0.00,0.09,0.04,-0.01,0.09,0.04
-0.01,0.09,0.04,-0.01,0.09,0.04
-0.00,0.09,0.04,-0.01,0.09,0.04
-0.00,0.09,0.04,-0.00,0.09,0.04
-0.00,0.09,0.04,-0.01,0.09,0.04
-0.01,0.09,0.04,-0.01,0.09,0.04
-0.01,0.09,0.04,-0.01,0.09,0.04
-0.01,0.09,0.04,-0.01,0.09,0.04
-0.01,0.09,0.04,-0.01,0.09,0.04
-0.01,0.09,0.04,-0.01,0.09,0.04
-0.01,0.09,0.04,-0.01,0.09,0.04
-0.01,0.09,0.04,-0.01,0.09,0.04
-0.01,0.09,0.04,-0.01,0.09,0.04
-0.01,0.09,0.04,-0.02,0.08,0.04
-0.02,0.09,0.04,-0.02,0.08,0.04
-0.02,0.08,0.04,-0.02,0.09,0.04
-0.02,0.08,0.04,-0.02,0.08,0.04
-0.02,0.09,0.04,-0.02,0.08,0.04
-0.02,0.09,0.04,-0.02,0.08,0.04
-0.02,0.08,0.04,-0.02,0.09,0.05
-0.02,0.08,0.05,-0.01,0.09,0.05
-0.01,0.08,0.05,-0.01,0.09,0.05
-0.01,0.09,0.05,-0.01,0.08,0.05
-0.00,0.09,0.06,0.00,0.09,0.05
0.00,0.08,0.06,0.00,0.09,0.06
0.00,0.09,0.05,0.00,0.09,0.06
0.00,0.09,0.05,0.00,0.09,0.05
0.00,0.09,0.05,0.00,0.09,0.05
-0.00,0.09,0.05,-0.00,0.10,0.05
-0.01,0.09,0.05,-0.01,0.09,0.05
-0.01,0.09,0.04,-0.01,0.09,0.04
-0.01,0.08,0.05,-0.02,0.09,0.05
-0.02,0.09,0.05,-0.02,0.08,0.05
-0.02,0.08,0.05,-0.02,0.09,0.04
-0.02,0.09,0.05,-0.02,0.09,0.05
-0.02,0.09,0.05,-0.02,0.09,0.05
-0.01,0.09,0.05,-0.01,0.08,0.05
-0.01,0.08,0.05,-0.01,0.08,0.05
-0.01,0.09,0.05,-0.01,0.09,0.05
-0.00,0.09,0.05,-0.00,0.09,0.05
0.00,0.09,0.05,-0.00,0.09,0.05
0.00,0.09,0.05,-0.00,0.09,0.05
0.00,0.09,0.05,-0.00,0.09,0.04
-0.00,0.09,0.05,-0.01,0.09,0.04
-0.01,0.09,0.04,-0.01,0.09,0.04
-0.01,0.09,0.05,-0.01,0.09,0.05
-0.01,0.09,0.05,-0.01,0.09,0.04
-0.01,0.09,0.04,-0.01,0.09,0.04
-0.01,0.09,0.05,-0.01,0.09,0.05
-0.01,0.09,0.05,-0.01,0.09,0.04
-0.01,0.09,0.05,-0.01,0.09,0.05
-0.01,0.08,0.04,-0.01,0.08,0.05
-0.01,0.09,0.04,-0.01,0.09,0.05
-0.01,0.09,0.05,-0.01,0.09,0.05
-0.01,0.09,0.05,-0.01,0.09,0.05
-0.01,0.09,0.05,-0.00,0.09,0.05
-0.00,0.09,0.05,-0.01,0.09,0.05
-0.00,0.09,0.06,-0.00,0.09,0.06
0.00,0.09,0.06,0.00,0.09,0.06
0.00,0.09,0.05,0.00,0.09,0.05
0.00,0.08,0.06,-0.00,0.08,0.06
0.00,0.09,0.05,-0.00,0.09,0.05
-0.01,0.09,0.05,-0.01,0.09,0.05
-0.01,0.09,0.04,-0.01,0.09,0.04
-0.01,0.09,0.04,-0.01,0.09,0.04
-0.01,0.09,0.04,-0.01,0.09,0.04
-0.01,0.09,0.04,-0.01,0.09,0.04
-0.01,0.09,0.04,-0.01,0.09,0.04
-0.01,0.09,0.04,-0.01,0.09,0.04
-0.00,0.09,0.04,-0.00,0.08,0.05
-0.00,0.09,0.05,-0.00,0.09,0.05
-0.01,0.09,0.05,-0.00,0.09,0.05
-0.00,0.09,0.05,-0.01,0.09,0.05
-0.01,0.09,0.05,-0.01,0.09,0.05
-0.01,0.09,0.05,-0.01,0.09,0.04
-0.01,0.09,0.04,-0.01,0.09,0.05
-0.01,0.09,0.04,-0.01,0.09,0.05
-0.01,0.09,0.04,-0.01,0.09,0.05
-0.01,0.09,0.04,-0.01,0.09,0.05
-0.01,0.09,0.05,-0.01,0.09,0.05
-0.01,0.09,0.05,-0.01,0.09,0.05
-0.01,0.09,0.05,-0.01,0.09,0.05
-0.01,0.09,0.05,-0.01,0.09,0.05
-0.01,0.09,0.05,-0.01,0.08,0.05
-0.01,0.09,0.05,-0.00,0.08,0.05
-0.00,0.09,0.05,-0.01,0.09,0.05
-0.01,0.09,0.04,-0.01,0.09,0.05
-0.01,0.09,0.05,-0.01,0.09,0.04
-0.01,0.09,0.04,-0.01,0.09,0.05
-0.01,0.09,0.05,-0.01,0.09,0.05
-0.02,0.09,0.05,-0.01,0.09,0.05
-0.01,0.09,0.05,-0.01,0.09,0.05
-0.01,0.09,0.05,-0.01,0.09,0.05
-0.01,0.08,0.05,-0.01,0.08,0.05
-0.01,0.09,0.04,-0.01,0.09,0.05
-0.01,0.08,0.04,-0.01,0.09,0.05
-0.01,0.09,0.05,-0.01,0.09,0.05
-0.01,0.09,0.05,-0.01,0.09,0.05
-0.01,0.09,0.05,-0.01,0.09,0.05
-0.01,0.09,0.05,-0.01,0.09,0.05
-0.00,0.09,0.05,-0.01,0.09,0.05
-0.00,0.09,0.04,-0.01,0.09,0.04
-0.00,0.09,0.05,-0.01,0.09,0.05
-0.00,0.09,0.04,-0.00,0.09,0.05
-0.00,0.09,0.05,-0.01,0.09,0.05
-0.01,0.09,0.05,-0.01,0.09,0.05
-0.01,0.09,0.05,-0.01,0.09,0.05
-0.01,0.09,0.05,-0.01,0.09,0.04
-0.01,0.08,0.04,-0.01,0.09,0.05
-0.01,0.09,0.05,-0.01,0.09,0.05
-0.01,0.08,0.04,-0.01,0.09,0.05
-0.01,0.09,0.04,-0.01,0.09,0.04
-0.02,0.09,0.05,-0.01,0.08,0.04
-0.01,0.08,0.05,-0.02,0.08,0.04
-0.02,0.08,0.04,-0.02,0.08,0.05
-0.02,0.08,0.04,-0.02,0.08,0.04
-0.01,0.08,0.04,-0.01,0.09,0.04
-0.01,0.09,0.04,-0.01,0.09,0.04
-0.02,0.08,0.04,-0.01,0.08,0.04
-0.01,0.08,0.05,-0.02,0.08,0.04
-0.01,0.08,0.04,-0.01,0.08,0.05
-0.02,0.09,0.05,-0.01,0.08,0.05
-0.01,0.09,0.05,-0.01,0.08,0.04
-0.01,0.09,0.05,-0.01,0.08,0.05
-0.01,0.08,0.05,-0.01,0.08,0.05
-0.01,0.09,0.05,-0.01,0.09,0.05
-0.01,0.08,0.05,-0.01,0.08,0.05
-0.01,0.08,0.05,-0.01,0.08,0.05
-0.01,0.09,0.05,-0.01,0.09,0.05
-0.01,0.09,0.05,-0.01,0.09,0.05
-0.01,0.09,0.05,-0.01,0.09,0.05
-0.01,0.08,0.05,-0.01,0.09,0.05
-0.01,0.08,0.05,-0.01,0.09,0.05
-0.01,0.09,0.05,-0.01,0.09,0.05
-0.01,0.09,0.05,-0.01,0.09,0.05
-0.01,0.09,0.05,-0.00,0.08,0.05
-0.01,0.09,0.05,-0.01,0.09,0.05
-0.01,0.09,0.05,-0.00,0.09,0.05
-0.01,0.09,0.05,-0.00,0.09,0.05
-0.01,0.09,0.04,-0.01,0.09,0.04
-0.00,0.09,0.05,-0.00,0.09,0.05
-0.00,0.09,0.05,0.00,0.09,0.05
-0.00,0.08,0.05,-0.00,0.09,0.05
0.00,0.09,0.05,0.00,0.09,0.05
-0.00,0.09,0.05,-0.00,0.09,0.04
-0.00,0.08,0.05,-0.00,0.08,0.04
-0.00,0.08,0.04,-0.01,0.08,0.04
-0.01,0.09,0.05,-0.01,0.09,0.05
-0.01,0.09,0.04,-0.01,0.09,0.04
-0.02,0.09,0.05,-0.01,0.08,0.05
-0.01,0.08,0.05,-0.01,0.08,0.04
-0.01,0.08,0.05,-0.01,0.08,0.05
-0.01,0.08,0.04,-0.02,0.08,0.05
-0.01,0.08,0.05,-0.01,0.08,0.05
-0.02,0.08,0.05,-0.01,0.09,0.05
-0.01,0.09,0.05,-0.01,0.09,0.05
-0.01,0.09,0.05,-0.01,0.08,0.05
-0.01,0.09,0.05,-0.01,0.09,0.05
-0.00,0.09,0.05,-0.01,0.09,0.05
-0.00,0.09,0.05,-0.00,0.09,0.05
0.00,0.09,0.05,-0.00,0.09,0.05
-0.00,0.09,0.05,-0.00,0.08,0.05
-0.00,0.09,0.05,-0.00,0.09,0.05
-0.00,0.09,0.04,-0.00,0.09,0.05
-0.01,0.09,0.05,-0.01,0.09,0.05
-0.01,0.09,0.04,-0.01,0.08,0.05
-0.01,0.09,0.04,-0.01,0.09,0.04
-0.01,0.08,0.04,-0.01,0.09,0.05
-0.01,0.09,0.04,-0.01,0.09,0.05
-0.01,0.09,0.05,-0.01,0.08,0.04
-0.01,0.08,0.05,-0.01,0.08,0.05
-0.01,0.09,0.05,-0.01,0.09,0.05
-0.01,0.08,0.05,-0.01,0.09,0.05
-0.01,0.09,0.05,-0.01,0.09,0.05
-0.01,0.08,0.05,-0.01,0.08,0.04
-0.01,0.07,0.05,-0.01,0.08,0.05
-0.01,0.09,0.05,-0.01,0.09,0.05
-0.01,0.09,0.05,-0.01,0.09,0.04
-0.01,0.09,0.05,-0.01,0.08,0.05
-0.01,0.09,0.05,-0.01,0.09,0.05
-0.01,0.08,0.05,-0.00,0.09,0.05
-0.01,0.09,0.05,-0.01,0.08,0.05
-0.01,0.09,0.05,-0.01,0.09,0.05
-0.00,0.09,0.05,-0.01,0.09,0.05
-0.01,0.09,0.05,-0.01,0.09,0.04
-0.01,0.09,0.04,-0.01,0.08,0.05
-0.01,0.09,0.05,-0.01,0.09,0.04
-0.01,0.09,0.05,-0.01,0.09,0.05
-0.01,0.09,0.05,-0.01,0.09,0.05
-0.01,0.09,0.05,-0.01,0.09,0.04
-0.01,0.08,0.05,-0.01,0.09,0.05
-0.01,0.09,0.05,-0.01,0.09,0.05
-0.00,0.09,0.05,-0.00,0.09,0.05
-0.01,0.08,0.05,-0.01,0.09,0.05
-0.01,0.09,0.05,-0.01,0.09,0.05
-0.00,0.09,0.05,-0.01,0.09,0.05
-0.01,0.09,0.05,-0.01,0.09,0.04
-0.00,0.09,0.04,-0.01,0.09,0.05
-0.01,0.09,0.05,-0.01,0.09,0.05
-0.01,0.09,0.05,-0.00,0.09,0.05
-0.00,0.09,0.05,-0.01,0.09,0.05
-0.01,0.09,0.05,-0.00,0.09,0.05
-0.00,0.09,0.05,-0.01,0.09,0.05
-0.01,0.09,0.05,-0.01,0.09,0.05
-0.00,0.09,0.05,-0.01,0.09,0.05
-0.01,0.09,0.05,-0.01,0.09,0.05
-0.01,0.09,0.05,-0.01,0.09,0.05
-0.01,0.09,0.05,-0.01,0.09,0.05
-0.01,0.09,0.05,-0.01,0.09,0.05
-0.01,0.09,0.05,-0.01,0.08,0.04
-0.01,0.09,0.05,-0.01,0.08,0.05
-0.01,0.09,0.05,-0.01,0.09,0.05
-0.01,0.09,0.05,-0.01,0.09,0.05
-0.01,0.09,0.05,-0.00,0.09,0.05
-0.01,0.09,0.05,-0.00,0.09,0.04
-0.01,0.09,0.05,-0.01,0.09,0.05
-0.00,0.09,0.05,-0.01,0.09,0.05
-0.01,0.09,0.05,-0.00,0.09,0.05
-0.00,0.09,0.05,-0.01,0.09,0.05
-0.01,0.09,0.05,-0.01,0.09,0.05
-0.01,0.09,0.05,-0.01,0.09,0.05
-0.01,0.09,0.05,-0.01,0.09,0.05
-0.01,0.09,0.05,-0.01,0.08,0.05
-0.01,0.08,0.05,-0.01,0.09,0.05
-0.01,0.09,0.04,-0.01,0.09,0.05
-0.01,0.09,0.05,-0.01,0.09,0.05
-0.01,0.09,0.05,-0.00,0.09,0.05
-0.01,0.09,0.05,-0.00,0.09,0.05
-0.00,0.09,0.05,-0.01,0.09,0.05
-0.00,0.09,0.05,-0.00,0.09,0.05
-0.00,0.09,0.05,-0.00,0.09,0.05
-0.00,0.09,0.05,-0.00,0.09,0.05
-0.00,0.09,0.05,-0.00,0.09,0.05
-0.01,0.09,0.05,-0.01,0.09,0.05
-0.01,0.09,0.05,-0.01,0.09,0.05
-0.01,0.09,0.05,-0.01,0.09,0.05
-0.01,0.09,0.05,-0.01,0.09,0.05
-0.01,0.09,0.05,-0.01,0.09,0.05
-0.01,0.09,0.05,-0.01,0.09,0.05
-0.01,0.09,0.05,-0.01,0.09,0.05
-0.01,0.09,0.05,-0.01,0.09,0.05
-0.01,0.08,0.05,-0.01,0.09,0.05
-0.00,0.09,0.05,-0.00,0.09,0.05
-0.00,0.09,0.05,-0.00,0.09,0.05
-0.00,0.09,0.05,-0.00,0.09,0.05
-0.01,0.09,0.05,-0.01,0.08,0.05
-0.00,0.09,0.05,-0.00,0.09,0.05
-0.01,0.09,0.05,-0.01,0.09,0.05
-0.00,0.09,0.05,-0.01,0.09,0.05
-0.01,0.09,0.05,-0.01,0.09,0.05
-0.01,0.09,0.05,-0.01,0.09,0.04
-0.01,0.09,0.05,-0.01,0.09,0.05
-0.01,0.09,0.05,-0.01,0.09,0.05
-0.01,0.09,0.05,-0.01,0.09,0.05
-0.00,0.09,0.05,-0.01,0.09,0.05
-0.00,0.09,0.05,-0.01,0.09,0.04
-0.01,0.09,0.05,-0.00,0.09,0.05
-0.00,0.09,0.05,-0.00,0.09,0.05
-0.00,0.09,0.05,-0.00,0.09,0.05
-0.00,0.09,0.05,0.00,0.09,0.04
0.00,0.09,0.05,0.00,0.09,0.05
-0.00,0.09,0.05,0.00,0.09,0.05
-0.00,0.09,0.04,0.00,0.09,0.05
0.00,0.09,0.05,0.00,0.09,0.05
-0.00,0.09,0.06,0.00,0.09,0.05
-0.00,0.09,0.05,-0.00,0.09,0.05
-0.00,0.09,0.05,-0.00,0.09,0.05
-0.01,0.09,0.05,-0.01,0.09,0.05
-0.01,0.08,0.05,-0.01,0.09,0.05
-0.01,0.09,0.05,-0.01,0.09,0.05
-0.01,0.09,0.05,-0.01,0.09,0.05
-0.01,0.09,0.04,-0.01,0.09,0.05
-0.01,0.08,0.04,-0.01,0.08,0.05
-0.01,0.09,0.04,-0.01,0.09,0.05
-0.01,0.09,0.04,-0.01,0.09,0.04
-0.01,0.08,0.04,-0.01,0.08,0.04
-0.01,0.09,0.04,-0.01,0.08,0.04
-0.01,0.09,0.04,-0.01,0.09,0.04
-0.01,0.09,0.05,-0.01,0.09,0.05
-0.01,0.09,0.04,-0.01,0.09,0.05
-0.01,0.09,0.05,-0.01,0.08,0.05
-0.01,0.09,0.05,-0.01,0.08,0.05
-0.01,0.08,0.05,-0.01,0.08,0.05
-0.01,0.08,0.05,-0.02,0.08,0.05
-0.02,0.08,0.04,-0.02,0.08,0.05
-0.02,0.08,0.05,-0.02,0.08,0.05
-0.02,0.09,0.05,-0.02,0.08,0.05
-0.02,0.08,0.05,-0.02,0.08,0.05
-0.01,0.08,0.05,-0.02,0.09,0.05
-0.01,0.08,0.05,-0.01,0.08,0.05
-0.01,0.09,0.05,-0.01,0.09,0.05
-0.01,0.09,0.05,-0.01,0.09,0.05
-0.00,0.09,0.05,-0.00,0.09,0.05
-0.00,0.09,0.05,0.00,0.09,0.05
0.00,0.09,0.05,0.00,0.09,0.05
0.00,0.09,0.05,-0.00,0.09,0.05
0.00,0.09,0.05,0.00,0.09,0.05
-0.00,0.09,0.05,-0.00,0.09,0.05
-0.00,0.09,0.05,0.00,0.09,0.05
-0.00,0.09,0.05,-0.00,0.09,0.05
0.00,0.09,0.05,-0.00,0.09,0.05
-0.01,0.09,0.05,-0.01,0.09,0.05
-0.00,0.09,0.05,-0.00,0.09,0.05
-0.00,0.09,0.05,-0.01,0.09,0.05
-0.01,0.09,0.05,-0.01,0.09,0.05
-0.01,0.09,0.04,-0.01,0.09,0.04
-0.01,0.08,0.05,-0.01,0.08,0.04
-0.01,0.09,0.04,-0.01,0.09,0.04
-0.00,0.09,0.04,-0.00,0.09,0.04
-0.01,0.09,0.05,-0.00,0.09,0.05
-0.00,0.09,0.05,0.00,0.09,0.05
-0.00,0.09,0.05,0.00,0.09,0.05
0.00,0.09,0.05,-0.00,0.09,0.05
-0.00,0.09,0.05,0.00,0.09,0.05
-0.00,0.09,0.05,-0.00,0.09,0.05
-0.00,0.09,0.05,-0.00,0.09,0.05
-0.00,0.09,0.05,-0.01,0.09,0.05
-0.01,0.09,0.05,-0.01,0.09,0.05
-0.01,0.09,0.04,-0.01,0.08,0.04
-0.01,0.09,0.05,-0.01,0.09,0.04
-0.01,0.09,0.05,-0.01,0.09,0.04
-0.01,0.09,0.04,-0.01,0.09,0.04
-0.01,0.09,0.05,-0.01,0.09,0.05
-0.01,0.09,0.05,-0.01,0.09,0.05
-0.00,0.09,0.05,-0.00,0.09,0.05
-0.00,0.09,0.05,-0.01,0.09,0.05
-0.01,0.09,0.05,-0.00,0.09,0.05
-0.01,0.09,0.05,-0.01,0.09,0.05
-0.01,0.09,0.05,-0.00,0.09,0.05
-0.01,0.09,0.05,-0.01,0.09,0.05
-0.01,0.09,0.05,-0.01,0.09,0.05
-0.01,0.09,0.05,-0.01,0.09,0.05
-0.01,0.09,0.05,-0.01,0.09,0.05
-0.01,0.09,0.05,-0.01,0.09,0.04
-0.01,0.08,0.05,-0.01,0.09,0.05
-0.01,0.09,0.04,-0.01,0.09,0.05
-0.01,0.09,0.05,-0.01,0.09,0.04
-0.01,0.09,0.05,-0.01,0.09,0.05
-0.01,0.09,0.04,-0.01,0.08,0.05
-0.01,0.09,0.05,-0.01,0.09,0.05
-0.01,0.09,0.05,-0.00,0.09,0.05
-0.00,0.09,0.05,-0.01,0.09,0.05
-0.00,0.09,0.05,-0.00,0.09,0.05
-0.00,0.09,0.05,-0.01,0.09,0.05
-0.01,0.08,0.04,-0.01,0.09,0.05
-0.01,0.09,0.05,-0.01,0.09,0.04
-0.01,0.09,0.05,-0.01,0.09,0.05
-0.01,0.09,0.05,-0.01,0.09,0.05
-0.01,0.09,0.05,-0.01,0.09,0.05
-0.01,0.08,0.05,-0.00,0.09,0.05
-0.01,0.09,0.05,-0.01,0.09,0.04
-0.01,0.09,0.05,-0.01,0.09,0.04
-0.01,0.08,0.04,-0.01,0.09,0.05
-0.01,0.09,0.05,-0.01,0.09,0.05
-0.01,0.09,0.05,-0.01,0.09,0.05
-0.01,0.09,0.05,-0.01,0.09,0.04
-0.00,0.09,0.05,-0.01,0.09,0.05
-0.01,0.09,0.05,-0.00,0.09,0.05
-0.01,0.09,0.04,-0.01,0.09,0.05
-0.01,0.09,0.05,-0.01,0.09,0.05
-0.01,0.09,0.05,-0.00,0.09,0.05
-0.01,0.08,0.04,-0.01,0.09,0.04
-0.01,0.09,0.05,-0.01,0.09,0.04
-0.01,0.09,0.04,-0.01,0.09,0.05
-0.01,0.09,0.04,-0.01,0.09,0.05
-0.01,0.09,0.05,-0.01,0.09,0.05
-0.01,0.09,0.05,-0.01,0.09,0.05
-0.01,0.09,0.05,-0.01,0.08,0.05
-0.01,0.09,0.05,-0.01,0.09,0.05
-0.01,0.09,0.05,-0.01,0.09,0.05
-0.01,0.09,0.05,-0.01,0.08,0.05
-0.01,0.09,0.05,-0.01,0.09,0.05
-0.01,0.09,0.05,-0.00,0.09,0.05
-0.01,0.09,0.05,-0.01,0.09,0.05
-0.01,0.09,0.05,-0.01,0.09,0.05
-0.01,0.08,0.04,-0.00,0.09,0.04
-0.01,0.09,0.05,-0.01,0.09,0.04
-0.01,0.09,0.05,-0.01,0.09,0.04
-0.01,0.09,0.05,-0.01,0.09,0.05
-0.01,0.09,0.05,-0.01,0.08,0.05
-0.01,0.09,0.05,-0.00,0.09,0.05
-0.01,0.09,0.05,-0.01,0.09,0.05
-0.01,0.09,0.05,-0.01,0.09,0.05
-0.00,0.09,0.05,-0.01,0.08,0.05
-0.01,0.09,0.05,-0.01,0.09,0.05
-0.01,0.09,0.05,-0.01,0.09,0.05
-0.01,0.09,0.05,-0.00,0.09,0.05
-0.00,0.09,0.05,-0.01,0.09,0.05
-0.00,0.09,0.05,-0.01,0.09,0.05
-0.01,0.09,0.05,-0.01,0.09,0.04
-0.01,0.09,0.05,-0.01,0.09,0.05
-0.01,0.09,0.04,-0.01,0.09,0.04
-0.00,0.09,0.04,-0.01,0.09,0.05
-0.01,0.09,0.05,-0.01,0.09,0.05
-0.01,0.09,0.05,-0.01,0.09,0.05
-0.01,0.09,0.05,-0.01,0.09,0.05
-0.01,0.09,0.05,-0.00,0.09,0.05
-0.01,0.09,0.05,-0.01,0.09,0.05
-0.01,0.09,0.05,-0.01,0.09,0.05
-0.00,0.09,0.05,-0.01,0.09,0.05
-0.01,0.09,0.05,-0.00,0.09,0.05
-0.01,0.09,0.05,-0.01,0.09,0.04
-0.01,0.09,0.05,-0.01,0.09,0.04
-0.01,0.09,0.05,-0.00,0.09,0.05
-0.00,0.09,0.05,-0.01,0.09,0.05
-0.00,0.09,0.05,-0.01,0.09,0.05
-0.01,0.09,0.05,-0.01,0.09,0.05
-0.01,0.09,0.05,-0.01,0.09,0.05
-0.01,0.09,0.05,-0.01,0.09,0.05
-0.01,0.09,0.05,-0.00,0.08,0.05
-0.01,0.09,0.05,-0.01,0.09,0.05
-0.00,0.09,0.05,-0.01,0.09,0.05
-0.01,0.09,0.05,-0.00,0.09,0.05
-0.01,0.09,0.05,-0.01,0.09,0.04
-0.00,0.09,0.05,-0.01,0.09,0.05
-0.01,0.09,0.05,-0.01,0.08,0.05
-0.01,0.09,0.05,-0.01,0.09,0.05
-0.00,0.09,0.05,-0.01,0.09,0.05
-0.01,0.09,0.05,-0.01,0.09,0.05
-0.01,0.09,0.04,-0.01,0.09,0.05
-0.01,0.09,0.05,-0.01,0.09,0.05
-0.00,0.09,0.05,-0.01,0.09,0.05
-0.01,0.09,0.05,-0.00,0.09,0.05
-0.01,0.09,0.05,-0.00,0.09,0.05
-0.01,0.09,0.05,-0.01,0.09,0.05
-0.01,0.09,0.05,-0.01,0.08,0.05
-0.01,0.09,0.05,-0.01,0.09,0.05
-0.01,0.09,0.05,-0.01,0.09,0.05
-0.01,0.09,0.05,-0.01,0.09,0.05
-0.01,0.09,0.05,-0.01,0.09,0.05
-0.01,0.09,0.05,-0.01,0.09,0.05
-0.01,0.09,0.05,-0.01,0.09,0.05
-0.01,0.09,0.05,-0.01,0.09,0.05
-0.00,0.08,0.05,-0.01,0.09,0.05
-0.01,0.09,0.05,-0.01,0.09,0.05
-0.01,0.09,0.05,-0.01,0.09,0.05
-0.01,0.09,0.05,-0.01,0.09,0.05
-0.01,0.09,0.05,-0.01,0.09,0.05
-0.01,0.09,0.05,-0.01,0.09,0.05
-0.01,0.09,0.05,-0.00,0.09,0.05
-0.01,0.09,0.05,-0.01,0.09,0.05
-0.01,0.09,0.05,-0.01,0.09,0.05
-0.01,0.09,0.05,-0.01,0.09,0.05
-0.01,0.09,0.05,-0.01,0.09,0.05
-0.01,0.09,0.05,-0.01,0.09,0.05
-0.01,0.09,0.05,-0.01,0.09,0.05
-0.01,0.09,0.05,-0.01,0.09,0.05
-0.01,0.09,0.05,-0.00,0.09,0.05
-0.01,0.09,0.05,-0.01,0.09,0.05
-0.01,0.09,0.05,-0.01,0.09,0.05
-0.01,0.09,0.05,-0.01,0.09,0.04
-0.01,0.09,0.05,-0.01,0.09,0.05
-0.01,0.09,0.05,-0.01,0.09,0.05
-0.01,0.09,0.05,-0.01,0.09,0.05
-0.01,0.09,0.05,-0.01,0.08,0.05
-0.01,0.09,0.05,-0.01,0.09,0.05
-0.01,0.09,0.05,-0.01,0.09,0.05
-0.01,0.09,0.05,-0.01,0.09,0.05
-0.01,0.09,0.05,-0.01,0.09,0.04
-0.01,0.09,0.04,-0.00,0.09,0.05
-0.01,0.09,0.05,-0.01,0.09,0.05
-0.01,0.09,0.05,-0.01,0.09,0.05
-0.01,0.09,0.05,-0.01,0.09,0.05
-0.01,0.09,0.05,-0.01,0.09,0.05
-0.01,0.09,0.05,-0.01,0.09,0.05
-0.01,0.09,0.05,-0.01,0.09,0.05
-0.00,0.09,0.05,-0.01,0.09,0.05
-0.00,0.09,0.04,-0.01,0.09,0.05
-0.01,0.09,0.05,-0.01,0.08,0.05
-0.00,0.09,0.05,-0.01,0.09,0.04
-0.01,0.09,0.05,-0.01,0.09,0.05
-0.01,0.09,0.05,-0.01,0.09,0.05
-0.01,0.09,0.05,-0.01,0.09,0.05
-0.01,0.09,0.04,-0.01,0.09,0.05
-0.01,0.09,0.05,-0.01,0.09,0.05
-0.01,0.09,0.05,-0.01,0.09,0.05
-0.01,0.09,0.05,-0.00,0.09,0.05
-0.01,0.09,0.05,-0.01,0.09,0.05
-0.01,0.09,0.05,-0.01,0.09,0.05
-0.00,0.09,0.05,-0.01,0.09,0.05
-0.01,0.09,0.05,-0.00,0.09,0.05
-0.01,0.09,0.05,-0.01,0.09,0.04
-0.00,0.09,0.05,-0.01,0.09,0.05
-0.01,0.09,0.05,-0.00,0.09,0.05
-0.00,0.09,0.05,-0.01,0.09,0.05
-0.01,0.09,0.05,-0.00,0.09,0.05
-0.01,0.09,0.05,-0.01,0.09,0.04
-0.00,0.09,0.05,-0.01,0.09,0.05
-0.01,0.09,0.05,-0.01,0.09,0.05
-0.01,0.09,0.05,-0.01,0.08,0.04
-0.01,0.09,0.04,-0.01,0.09,0.05
-0.01,0.09,0.05,-0.01,0.08,0.05
-0.01,0.09,0.05,-0.01,0.09,0.05
-0.01,0.09,0.05,-0.01,0.09,0.05
-0.01,0.09,0.05,-0.01,0.09,0.05
-0.01,0.09,0.05,-0.00,0.09,0.05
-0.00,0.09,0.05,-0.01,0.09,0.05
-0.01,0.09,0.04,-0.01,0.09,0.05
-0.01,0.09,0.05,-0.01,0.09,0.05
-0.01,0.09,0.05,-0.01,0.09,0.05
-0.00,0.09,0.05,-0.01,0.09,0.05
-0.01,0.09,0.05,-0.01,0.09,0.04
-0.00,0.09,0.05,-0.01,0.09,0.04
-0.01,0.09,0.04,-0.01,0.09,0.04
-0.01,0.09,0.04,-0.01,0.09,0.04
-0.01,0.09,0.05,-0.01,0.09,0.04
-0.01,0.09,0.05,-0.01,0.09,0.05
-0.01,0.09,0.05,-0.01,0.09,0.05
-0.01,0.09,0.05,-0.01,0.09,0.05
-0.00,0.09,0.05,-0.00,0.09,0.05
-0.01,0.09,0.05,-0.01,0.09,0.05
-0.00,0.09,0.05,-0.01,0.09,0.04
-0.00,0.09,0.04,-0.01,0.09,0.05
-0.01,0.09,0.04,-0.00,0.09,0.05
-0.01,0.09,0.05,-0.01,0.09,0.04
-0.01,0.09,0.05,-0.01,0.09,0.05
-0.01,0.09,0.05,-0.01,0.09,0.04
-0.01,0.09,0.05,-0.01,0.09,0.05
-0.01,0.09,0.04,-0.01,0.09,0.05
-0.01,0.09,0.05,-0.01,0.09,0.05
-0.01,0.08,0.05,-0.01,0.09,0.05
-0.01,0.09,0.05,-0.01,0.09,0.05
-0.01,0.09,0.05,-0.00,0.09,0.04
-0.01,0.09,0.04,-0.01,0.09,0.05
-0.01,0.09,0.05,-0.01,0.09,0.04
-0.01,0.09,0.05,-0.00,0.09,0.05
-0.01,0.09,0.05,-0.01,0.09,0.05
-0.01,0.09,0.05,-0.01,0.09,0.04
-0.01,0.09,0.05,-0.01,0.09,0.05
-0.01,0.09,0.05,-0.01,0.09,0.05
-0.01,0.09,0.05,-0.01,0.09,0.05
-0.01,0.09,0.05,-0.01,0.09,0.05
-0.01,0.09,0.05,-0.01,0.08,0.05
-0.00,0.09,0.05,-0.01,0.09,0.05
-0.01,0.09,0.05,-0.01,0.09,0.05
-0.01,0.09,0.05,-0.01,0.09,0.05
-0.01,0.09,0.04,-0.01,0.09,0.05
-0.01,0.09,0.05,-0.01,0.09,0.05
-0.01,0.09,0.05,-0.01,0.09,0.05
-0.01,0.09,0.05,-0.01,0.09,0.05
-0.00,0.09,0.05,-0.01,0.09,0.05
-0.00,0.09,0.05,-0.01,0.09,0.05
-0.01,0.09,0.05,-0.01,0.09,0.05
-0.01,0.09,0.05,-0.01,0.09,0.05
-0.01,0.09,0.05,-0.01,0.09,0.05
-0.01,0.08,0.05,-0.01,0.09,0.05
-0.01,0.08,0.05,-0.01,0.08,0.05
-0.00,0.09,0.05,-0.01,0.09,0.05
-0.01,0.09,0.05,-0.01,0.09,0.05
-0.01,0.09,0.05,-0.00,0.09,0.05
-0.00,0.09,0.05,-0.01,0.09,0.05
-0.00,0.09,0.05,-0.00,0.09,0.05
-0.01,0.09,0.05,-0.01,0.09,0.05
-0.01,0.09,0.05,-0.01,0.09,0.05
-0.01,0.08,0.05,-0.01,0.09,0.05
-0.01,0.09,0.05,-0.01,0.09,0.05
-0.01,0.09,0.05,-0.01,0.09,0.05
-0.01,0.09,0.05,-0.01,0.09,0.04
-0.01,0.09,0.05,-0.01,0.09,0.04
-0.01,0.09,0.05,-0.01,0.09,0.04
-0.01,0.09,0.05,-0.01,0.09,0.05
-0.01,0.08,0.05,-0.00,0.09,0.05
-0.00,0.09,0.05,-0.01,0.09,0.05
-0.01,0.09,0.05,-0.01,0.09,0.05
-0.00,0.09,0.05,-0.01,0.09,0.05
-0.01,0.09,0.05,-0.01,0.09,0.05
-0.01,0.09,0.05,-0.01,0.09,0.05
-0.01,0.09,0.05,-0.01,0.09,0.05
-0.01,0.09,0.05,-0.01,0.09,0.05
-0.00,0.09,0.05,-0.01,0.09,0.05
-0.00,0.09,0.05,-0.01,0.09,0.05
-0.00,0.09,0.05,-0.01,0.09,0.05
-0.01,0.09,0.05,-0.01,0.09,0.05
-0.01,0.09,0.05,-0.01,0.09,0.05
-0.01,0.09,0.04,-0.01,0.09,0.05
-0.01,0.09,0.05,-0.01,0.09,0.05
-0.01,0.09,0.05,-0.01,0.09,0.05
-0.01,0.09,0.05,-0.01,0.09,0.05
-0.01,0.09,0.05,-0.01,0.09,0.05
-0.01,0.09,0.05,-0.01,0.09,0.05
-0.01,0.09,0.05,-0.01,0.09,0.05
-0.01,0.09,0.05,-0.01,0.09,0.05
-0.01,0.09,0.05,-0.01,0.09,0.05
-0.01,0.09,0.05,-0.01,0.09,0.05
-0.01,0.09,0.05,-0.01,0.09,0.04
-0.01,0.09,0.04,-0.00,0.09,0.05
-0.01,0.09,0.05,-0.00,0.09,0.05
-0.01,0.09,0.05,-0.01,0.09,0.05
-0.01,0.09,0.05,-0.01,0.09,0.04
-0.01,0.09,0.05,-0.01,0.09,0.05
-0.01,0.08,0.05,-0.01,0.09,0.05
-0.01,0.09,0.05,-0.01,0.09,0.05
-0.00,0.09,0.05,-0.01,0.09,0.05
-0.01,0.09,0.05,-0.01,0.09,0.05
-0.01,0.09,0.05,-0.01,0.09,0.05
-0.01,0.09,0.05,-0.01,0.09,0.05
-0.01,0.09,0.05,-0.00,0.09,0.05
-0.01,0.09,0.05,-0.01,0.09,0.05
-0.01,0.09,0.04,-0.01,0.09,0.05
-0.01,0.09,0.05,-0.00,0.09,0.05
-0.01,0.09,0.05,-0.01,0.09,0.05
-0.01,0.09,0.05,-0.01,0.09,0.05
-0.01,0.09,0.05,-0.01,0.09,0.05
-0.00,0.09,0.05,-0.01,0.09,0.05
-0.01,0.09,0.05,-0.01,0.09,0.05
-0.01,0.09,0.05,-0.01,0.09,0.05
-0.01,0.09,0.05,-0.01,0.08,0.05
-0.01,0.09,0.05,-0.01,0.09,0.05
-0.01,0.09,0.05,-0.01,0.09,0.04
-0.00,0.09,0.05,-0.01,0.09,0.05
-0.01,0.09,0.05,-0.00,0.09,0.05
-0.01,0.09,0.04,-0.01,0.09,0.05
-0.01,0.09,0.05,-0.01,0.09,0.05
-0.01,0.09,0.05,-0.01,0.09,0.05
-0.00,0.09,0.05,-0.01,0.09,0.05
-0.00,0.09,0.05,-0.01,0.09,0.05
-0.01,0.09,0.04,-0.01,0.09,0.04
-0.01,0.09,0.04,-0.01,0.09,0.05
-0.01,0.09,0.05,-0.01,0.09,0.05
-0.01,0.09,0.05,-0.01,0.09,0.05
-0.01,0.09,0.05,-0.01,0.09,0.04
-0.01,0.09,0.05,-0.01,0.09,0.05
-0.00,0.09,0.05,-0.01,0.09,0.05
-0.01,0.09,0.05,-0.01,0.09,0.05
-0.01,0.09,0.05,-0.01,0.09,0.05
-0.01,0.09,0.04,-0.01,0.09,0.05
-0.01,0.09,0.05,-0.01,0.09,0.05
-0.01,0.09,0.05,-0.01,0.09,0.05
-0.01,0.09,0.05,-0.00,0.09,0.05
-0.01,0.08,0.05,-0.01,0.09,0.05
-0.01,0.09,0.04,-0.01,0.09,0.05
-0.01,0.09,0.05,-0.01,0.09,0.05
-0.00,0.09,0.04,-0.01,0.09,0.05
-0.01,0.09,0.05,-0.01,0.09,0.05
-0.01,0.09,0.05,-0.01,0.09,0.05
-0.01,0.09,0.05,-0.01,0.09,0.05
-0.01,0.09,0.05,-0.01,0.08,0.05
-0.00,0.09,0.05,-0.00,0.09,0.05
-0.00,0.09,0.05,-0.01,0.09,0.05
-0.01,0.09,0.05,-0.00,0.09,0.05
-0.01,0.09,0.05,-0.01,0.09,0.05
-0.01,0.09,0.05,-0.01,0.09,0.05
-0.01,0.09,0.04,-0.01,0.09,0.04
-0.01,0.09,0.05,-0.01,0.09,0.05
-0.01,0.09,0.05,-0.01,0.09,0.05
-0.01,0.09,0.04,-0.01,0.09,0.05
-0.01,0.09,0.05,-0.01,0.08,0.05
-0.01,0.09,0.05,-0.01,0.09,0.05
-0.00,0.09,0.05,-0.01,0.09,0.05
-0.01,0.09,0.05,-0.01,0.09,0.05
-0.01,0.09,0.05,-0.01,0.09,0.05
-0.01,0.09,0.05,-0.01,0.09,0.05
-0.01,0.09,0.05,-0.01,0.09,0.05
-0.01,0.09,0.05,-0.01,0.09,0.05
-0.01,0.09,0.05,-0.01,0.09,0.05
-0.01,0.09,0.05,-0.01,0.09,0.05
-0.01,0.09,0.05,-0.01,0.09,0.04
-0.01,0.09,0.05,-0.01,0.09,0.05
-0.01,0.09,0.05,-0.01,0.09,0.05
-0.01,0.09,0.05,-0.01,0.09,0.05
-0.01,0.09,0.05,-0.00,0.09,0.05
-0.00,0.09,0.05,-0.01,0.09,0.05
-0.01,0.09,0.05,-0.01,0.09,0.05
-0.01,0.09,0.05,-0.01,0.09,0.05
-0.01,0.09,0.04,-0.01,0.09,0.05
-0.01,0.09,0.05,-0.01,0.09,0.05
-0.01,0.09,0.05,-0.01,0.09,0.05
-0.00,0.08,0.05,-0.01,0.09,0.05
-0.01,0.09,0.05,-0.01,0.09,0.05
-0.01,0.09,0.05,-0.01,0.09,0.05
-0.01,0.09,0.05,-0.01,0.09,0.05
-0.01,0.09,0.05,-0.01,0.09,0.05
-0.01,0.09,0.05,-0.01,0.09,0.04
-0.00,0.09,0.05,-0.01,0.09,0.05
-0.01,0.09,0.05,-0.01,0.09,0.05
-0.01,0.09,0.04,-0.01,0.09,0.04
-0.01,0.09,0.05,-0.01,0.09,0.04
-0.01,0.09,0.05,-0.01,0.09,0.05
-0.01,0.09,0.05,-0.01,0.09,0.05
-0.01,0.09,0.05,-0.01,0.09,0.05
-0.01,0.09,0.05,-0.00,0.09,0.05
-0.00,0.09,0.05,-0.01,0.09,0.05
-0.01,0.09,0.05,-0.01,0.09,0.05
-0.01,0.09,0.05,-0.00,0.08,0.05
-0.01,0.09,0.05,-0.01,0.09,0.05
-0.01,0.09,0.05,-0.01,0.09,0.05
-0.01,0.09,0.05,-0.01,0.09,0.05
-0.01,0.09,0.05,-0.01,0.09,0.05
-0.01,0.09,0.05,-0.01,0.09,0.05
-0.01,0.09,0.05,-0.01,0.09,0.05
-0.01,0.09,0.05,-0.01,0.09,0.05
-0.01,0.09,0.04,-0.01,0.08,0.05
-0.00,0.09,0.05,-0.01,0.09,0.05
-0.00,0.09,0.05,-0.01,0.09,0.05
-0.01,0.09,0.05,-0.01,0.09,0.05
-0.01,0.09,0.05,-0.01,0.09,0.05
-0.01,0.09,0.05,-0.01,0.09,0.05
-0.01,0.09,0.05,-0.01,0.09,0.05
-0.01,0.09,0.05,-0.01,0.09,0.05
-0.01,0.09,0.05,-0.01,0.09,0.05
-0.01,0.09,0.05,-0.01,0.09,0.05
-0.01,0.09,0.04,-0.01,0.09,0.05
-0.01,0.09,0.05,-0.01,0.09,0.05
-0.01,0.09,0.05,-0.01,0.09,0.05
-0.01,0.09,0.05,-0.01,0.09,0.05
-0.01,0.09,0.05,-0.01,0.09,0.05
-0.01,0.09,0.05,-0.01,0.09,0.05
-0.01,0.09,0.05,-0.01,0.09,0.05
-0.01,0.09,0.05,-0.01,0.09,0.05
-0.01,0.09,0.05,-0.01,0.09,0.05
-0.01,0.09,0.05,-0.01,0.09,0.05
-0.01,0.09,0.05,-0.01,0.09,0.05
-0.01,0.09,0.05,-0.01,0.09,0.05
-0.01,0.09,0.05,-0.01,0.09,0.05
-0.01,0.09,0.05,-0.01,0.09,0.05
-0.01,0.09,0.05,-0.01,0.09,0.05
-0.01,0.09,0.05,-0.01,0.09,0.05
-0.01,0.09,0.05,-0.00,0.09,0.05
-0.01,0.09,0.04,-0.00,0.09,0.05
-0.01,0.09,0.05,-0.01,0.09,0.05
-0.01,0.09,0.05,-0.01,0.09,0.05
-0.01,0.09,0.05,-0.01,0.09,0.05
-0.01,0.09,0.05,-0.01,0.09,0.05
-0.01,0.08,0.04,-0.01,0.09,0.05
-0.01,0.09,0.05,-0.01,0.09,0.04
-0.00,0.09,0.05,-0.01,0.09,0.05
-0.01,0.09,0.05,-0.01,0.09,0.05
-0.01,0.09,0.05,-0.00,0.09,0.05
-0.01,0.09,0.05,-0.01,0.09,0.05
-0.00,0.09,0.05,-0.01,0.09,0.05
-0.01,0.09,0.05,-0.01,0.09,0.05
-0.01,0.09,0.05,-0.01,0.09,0.05
-0.01,0.09,0.05,-0.01,0.09,0.05
-0.01,0.09,0.05,-0.01,0.09,0.05
-0.01,0.09,0.05,-0.01,0.09,0.05
-0.01,0.09,0.05,-0.01,0.09,0.04
-0.01,0.09,0.05,-0.01,0.09,0.05
-0.01,0.09,0.05,-0.01,0.09,0.05
-0.01,0.09,0.04,-0.01,0.09,0.05
-0.01,0.09,0.05,-0.01,0.09,0.05
-0.01,0.09,0.05,-0.00,0.09,0.05
-0.01,0.09,0.05,-0.00,0.09,0.05
-0.01,0.09,0.05,-0.00,0.09,0.05
-0.01,0.09,0.05,-0.01,0.09,0.05
-0.01,0.09,0.04,-0.01,0.09,0.05
-0.01,0.09,0.05,-0.00,0.09,0.05
-0.01,0.09,0.04,-0.00,0.08,0.05
-0.01,0.09,0.05,-0.01,0.09,0.05
-0.01,0.09,0.05,-0.01,0.09,0.05
-0.01,0.09,0.05,-0.01,0.09,0.04
-0.01,0.09,0.05,-0.01,0.09,0.05
-0.01,0.09,0.05,-0.01,0.09,0.05
-0.01,0.09,0.05,-0.01,0.09,0.05
-0.01,0.09,0.05,-0.01,0.09,0.05
-0.01,0.09,0.05,-0.01,0.09,0.05
-0.01,0.09,0.05,-0.01,0.09,0.05
-0.01,0.09,0.05,-0.01,0.09,0.05
-0.01,0.09,0.05,-0.00,0.09,0.05
-0.01,0.09,0.05,-0.01,0.09,0.05
-0.01,0.09,0.05,-0.01,0.09,0.04
-0.01,0.09,0.05,-0.01,0.08,0.05
-0.01,0.09,0.05,-0.01,0.09,0.05
-0.01,0.09,0.05,-0.01,0.09,0.05
-0.01,0.09,0.05,-0.01,0.09,0.05
-0.01,0.09,0.05,-0.01,0.09,0.05
-0.00,0.09,0.05,-0.01,0.09,0.05
-0.01,0.09,0.05,-0.01,0.09,0.05
-0.01,0.09,0.05,-0.01,0.09,0.05
-0.01,0.09,0.04,-0.01,0.09,0.05
-0.01,0.09,0.05,-0.00,0.09,0.04
-0.01,0.09,0.04,-0.01,0.09,0.05
-0.01,0.09,0.05,-0.01,0.09,0.05
-0.01,0.09,0.04,-0.01,0.09,0.05
-0.01,0.09,0.05,-0.01,0.09,0.05
-0.01,0.09,0.05,-0.01,0.09,0.05
-0.01,0.09,0.05,-0.01,0.09,0.05
-0.01,0.09,0.05,-0.01,0.09,0.05
-0.01,0.09,0.05,-0.01,0.09,0.05
-0.01,0.09,0.05,-0.01,0.09,0.05
-0.01,0.09,0.05,-0.01,0.09,0.05
-0.00,0.09,0.05,-0.01,0.09,0.05
-0.00,0.09,0.05,-0.01,0.09,0.05
-0.00,0.09,0.05,-0.00,0.09,0.05
-0.01,0.09,0.05,-0.00,0.09,0.05
-0.00,0.09,0.05,-0.01,0.09,0.05
-0.01,0.09,0.04,-0.01,0.09,0.04
-0.01,0.09,0.05,-0.01,0.09,0.05
-0.01,0.08,0.05,-0.01,0.09,0.04
-0.01,0.09,0.04,-0.01,0.09,0.04
-0.01,0.09,0.05,-0.01,0.09,0.05
-0.01,0.09,0.05,-0.01,0.09,0.05
-0.01,0.09,0.05,-0.01,0.08,0.05
-0.01,0.08,0.05,-0.01,0.09,0.05
-0.01,0.08,0.05,-0.00,0.09,0.05
-0.00,0.09,0.05,-0.00,0.09,0.05
-0.00,0.09,0.05,-0.00,0.09,0.05
-0.00,0.09,0.05,-0.00,0.09,0.05
-0.00,0.09,0.05,-0.00,0.09,0.05
-0.00,0.09,0.04,-0.00,0.09,0.04
-0.01,0.09,0.05,-0.01,0.09,0.05
-0.00,0.09,0.04,-0.00,0.09,0.05
-0.01,0.09,0.05,-0.01,0.09,0.05
-0.01,0.08,0.05,-0.01,0.09,0.05
-0.01,0.09,0.05,-0.01,0.09,0.05
-0.01,0.09,0.05,-0.01,0.09,0.05
-0.01,0.09,0.05,-0.01,0.09,0.05
-0.01,0.09,0.05,-0.01,0.09,0.04
-0.01,0.09,0.05,-0.00,0.09,0.04
-0.00,0.09,0.05,-0.01,0.09,0.05
-0.00,0.09,0.05,-0.01,0.09,0.05
-0.01,0.09,0.05,-0.00,0.09,0.05
-0.00,0.09,0.05,-0.01,0.09,0.05
-0.00,0.09,0.05,-0.00,0.09,0.05
-0.00,0.09,0.05,-0.01,0.09,0.05
-0.00,0.09,0.05,-0.01,0.09,0.05
-0.01,0.09,0.05,-0.01,0.09,0.04
-0.01,0.09,0.05,-0.01,0.09,0.05
-0.01,0.09,0.05,-0.01,0.09,0.05
-0.01,0.09,0.05,-0.01,0.09,0.05
-0.01,0.09,0.04,-0.00,0.09,0.04
-0.01,0.09,0.04,-0.01,0.08,0.05
-0.01,0.09,0.05,-0.01,0.09,0.05
-0.01,0.09,0.05,-0.01,0.09,0.05
-0.01,0.09,0.05,-0.01,0.09,0.05
-0.01,0.09,0.05,-0.01,0.09,0.05
-0.00,0.09,0.05,-0.01,0.09,0.05
-0.00,0.09,0.05,-0.01,0.09,0.05
-0.01,0.09,0.05,-0.01,0.09,0.05
-0.01,0.09,0.05,-0.01,0.09,0.04
-0.01,0.09,0.04,-0.01,0.09,0.05
-0.01,0.09,0.05,-0.01,0.09,0.05
-0.01,0.09,0.05,-0.00,0.09,0.05
-0.01,0.09,0.05,-0.00,0.08,0.05
-0.01,0.09,0.05,-0.01,0.09,0.05
-0.01,0.09,0.05,-0.01,0.09,0.05
-0.01,0.09,0.05,-0.01,0.08,0.05
-0.01,0.09,0.05,-0.01,0.09,0.05
-0.01,0.09,0.05,-0.01,0.09,0.05
-0.01,0.09,0.05,-0.00,0.09,0.05
-0.01,0.09,0.05,-0.01,0.08,0.05
-0.00,0.09,0.05,-0.01,0.09,0.05
-0.01,0.09,0.05,-0.01,0.09,0.04
-0.01,0.09,0.05,-0.01,0.09,0.05
-0.01,0.09,0.05,-0.01,0.09,0.05
-0.01,0.09,0.05,-0.01,0.09,0.05
-0.00,0.09,0.05,-0.01,0.09,0.05
-0.00,0.09,0.05,-0.01,0.09,0.05
-0.01,0.09,0.04,-0.01,0.09,0.05
-0.01,0.09,0.05,-0.01,0.09,0.05
-0.01,0.09,0.04,-0.01,0.09,0.05
-0.01,0.10,0.05,-0.01,0.10,0.04
-0.01,0.09,0.05,-0.01,0.10,0.05
-0.01,0.09,0.05,-0.01,0.10,0.05
-0.01,0.09,0.05,-0.01,0.09,0.05
-0.01,0.09,0.05,-0.01,0.09,0.05
-0.01,0.09,0.05,-0.01,0.09,0.05
-0.01,0.09,0.05,-0.01,0.09,0.05
-0.01,0.10,0.05,-0.01,0.10,0.05
-0.01,0.10,0.05,-0.01,0.09,0.05
-0.01,0.09,0.05,-0.01,0.09,0.05
-0.00,0.09,0.05,-0.01,0.09,0.05
-0.00,0.09,0.05,-0.01,0.09,0.04
-0.00,0.09,0.05,-0.01,0.09,0.05
-0.00,0.09,0.05,-0.01,0.09,0.05
-0.01,0.09,0.05,-0.00,0.09,0.05
-0.01,0.09,0.04,-0.01,0.09,0.05
-0.01,0.09,0.05,-0.01,0.09,0.05
-0.01,0.09,0.05,-0.01,0.09,0.05
-0.01,0.09,0.05,-0.01,0.09,0.05
-0.01,0.09,0.04,-0.01,0.09,0.05
-0.01,0.09,0.05,-0.01,0.09,0.05
-0.01,0.09,0.05,-0.01,0.09,0.05
-0.01,0.09,0.05,-0.01,0.09,0.05
-0.01,0.09,0.05,-0.01,0.09,0.05
-0.01,0.09,0.05,-0.01,0.09,0.05
-0.01,0.09,0.05,-0.01,0.09,0.04
-0.01,0.09,0.05,-0.01,0.09,0.05
-0.01,0.09,0.05,-0.01,0.09,0.05
-0.01,0.09,0.05,-0.01,0.09,0.05
-0.01,0.09,0.05,-0.01,0.09,0.05
-0.01,0.09,0.05,-0.01,0.09,0.05
-0.01,0.09,0.04,-0.01,0.09,0.05
-0.01,0.09,0.05,-0.01,0.09,0.05
-0.01,0.09,0.05,-0.01,0.09,0.05
-0.01,0.09,0.05,-0.01,0.09,0.05
-0.01,0.09,0.05,-0.01,0.09,0.05
-0.01,0.09,0.05,-0.01,0.09,0.05
-0.01,0.09,0.05,-0.01,0.08,0.05
-0.00,0.09,0.05,-0.01,0.09,0.05
-0.01,0.09,0.05,-0.01,0.09,0.05
-0.01,0.09,0.05,-0.00,0.09,0.05
-0.01,0.09,0.05,-0.01,0.09,0.05
-0.01,0.09,0.05,-0.01,0.08,0.04
-0.01,0.09,0.05,-0.01,0.09,0.05
-0.01,0.09,0.05,-0.01,0.09,0.05
-0.01,0.09,0.05,-0.01,0.08,0.04
-0.00,0.09,0.05,-0.01,0.09,0.04
-0.01,0.09,0.05,-0.01,0.09,0.05
-0.01,0.09,0.05,-0.01,0.09,0.05
-0.01,0.09,0.05,-0.01,0.09,0.05
-0.01,0.09,0.05,-0.01,0.09,0.05
-0.01,0.09,0.05,-0.01,0.09,0.05
-0.01,0.09,0.05,-0.01,0.09,0.05
-0.01,0.09,0.05,-0.01,0.09,0.05
-0.01,0.09,0.05,-0.01,0.09,0.05
-0.01,0.09,0.05,-0.01,0.09,0.05
-0.01,0.09,0.05,-0.01,0.09,0.04
-0.01,0.09,0.05,-0.01,0.09,0.05
-0.01,0.09,0.05,-0.01,0.09,0.04
-0.01,0.09,0.05,-0.01,0.09,0.05
-0.01,0.09,0.05,-0.01,0.09,0.05
-0.01,0.09,0.05,-0.01,0.09,0.04
-0.01,0.09,0.05,-0.01,0.09,0.05
-0.01,0.09,0.05,-0.01,0.09,0.05
-0.01,0.09,0.04,-0.01,0.09,0.05
-0.01,0.09,0.05,-0.01,0.09,0.04
-0.01,0.09,0.05,-0.01,0.09,0.05
-0.01,0.09,0.05,-0.01,0.09,0.05
-0.01,0.09,0.05,-0.01,0.09,0.05
-0.01,0.09,0.05,-0.01,0.09,0.05
-0.01,0.09,0.05,-0.01,0.09,0.05
-0.01,0.09,0.05,-0.01,0.09,0.05
-0.01,0.09,0.05,-0.01,0.09,0.05
-0.01,0.09,0.05,-0.01,0.09,0.05
-0.01,0.09,0.05,-0.01,0.09,0.05
-0.01,0.09,0.04,-0.01,0.09,0.05
-0.01,0.09,0.05,-0.01,0.09,0.05
-0.01,0.09,0.05,-0.01,0.09,0.05
-0.01,0.09,0.05,-0.01,0.09,0.05
-0.01,0.09,0.05,-0.01,0.09,0.05
-0.01,0.09,0.05,-0.01,0.09,0.04
-0.01,0.09,0.05,-0.01,0.09,0.05
-0.01,0.09,0.05,-0.01,0.09,0.04
-0.01,0.09,0.05,-0.01,0.09,0.05
-0.01,0.09,0.05,-0.01,0.09,0.05
-0.01,0.09,0.05,-0.01,0.09,0.05
-0.01,0.09,0.05,-0.01,0.09,0.05
-0.01,0.09,0.04,-0.01,0.09,0.05
-0.01,0.09,0.05,-0.01,0.09,0.05
-0.01,0.09,0.05,-0.01,0.09,0.05
-0.00,0.09,0.05,-0.01,0.09,0.05
-0.01,0.09,0.04,-0.00,0.09,0.05
-0.01,0.09,0.05,-0.01,0.09,0.04
-0.01,0.09,0.05,-0.01,0.09,0.05
-0.01,0.09,0.05,-0.01,0.09,0.05
-0.00,0.09,0.05,-0.01,0.09,0.04
-0.01,0.09,0.05,-0.01,0.09,0.05
-0.01,0.09,0.05,-0.01,0.09,0.04
-0.01,0.09,0.05,-0.01,0.09,0.05
-0.01,0.09,0.04,-0.01,0.09,0.05
-0.00,0.09,0.05,-0.01,0.09,0.04
-0.01,0.09,0.04,-0.01,0.09,0.05
-0.01,0.09,0.05,-0.01,0.09,0.05
-0.01,0.09,0.05,-0.01,0.09,0.05
-0.00,0.09,0.04,-0.01,0.09,0.05
-0.01,0.09,0.05,-0.01,0.09,0.05
-0.01,0.09,0.05,-0.01,0.09,0.05
-0.01,0.09,0.05,-0.01,0.09,0.05
-0.01,0.09,0.05,-0.01,0.08,0.05
-0.01,0.09,0.05,-0.01,0.09,0.05
-0.01,0.09,0.04,-0.01,0.09,0.05
-0.01,0.09,0.05,-0.01,0.09,0.05
-0.01,0.09,0.05,-0.01,0.09,0.05
-0.01,0.09,0.05,-0.01,0.08,0.05
-0.01,0.09,0.05,-0.01,0.09,0.05
-0.01,0.09,0.05,-0.01,0.09,0.05
-0.01,0.09,0.05,-0.01,0.09,0.05
-0.01,0.09,0.05,-0.01,0.09,0.04
-0.01,0.09,0.05,-0.01,0.09,0.05
-0.01,0.09,0.05,-0.01,0.09,0.05
-0.01,0.09,0.05,-0.01,0.09,0.05
-0.01,0.09,0.05,-0.01,0.09,0.05
-0.01,0.09,0.05,-0.01,0.09,0.05
-0.01,0.09,0.05,-0.01,0.09,0.05
-0.01,0.09,0.05,-0.01,0.09,0.05
-0.01,0.09,0.05,-0.01,0.09,0.05
-0.01,0.09,0.05,-0.01,0.09,0.05
-0.01,0.09,0.05,-0.01,0.09,0.05
-0.01,0.09,0.05,-0.01,0.09,0.05
-0.01,0.09,0.05,-0.01,0.09,0.05
-0.01,0.09,0.05,-0.01,0.09,0.05
-0.00,0.09,0.05,-0.01,0.09,0.05
-0.01,0.09,0.05,-0.01,0.09,0.05
-0.01,0.09,0.05,-0.00,0.09,0.05
-0.01,0.09,0.05,-0.01,0.09,0.05
-0.01,0.09,0.05,-0.01,0.09,0.05
-0.01,0.09,0.05,-0.01,0.09,0.05
-0.00,0.09,0.05,-0.01,0.09,0.04
-0.01,0.09,0.05,-0.01,0.09,0.05
-0.01,0.09,0.04,-0.01,0.09,0.05
-0.01,0.09,0.05,-0.01,0.09,0.05
-0.01,0.09,0.05,-0.01,0.09,0.05
-0.01,0.09,0.05,-0.01,0.09,0.05
-0.01,0.09,0.05,-0.01,0.09,0.05
-0.01,0.09,0.05,-0.01,0.09,0.05
-0.01,0.09,0.05,-0.01,0.09,0.05
-0.01,0.09,0.05,-0.00,0.09,0.05
-0.01,0.09,0.05,-0.01,0.09,0.05
-0.01,0.09,0.05,-0.01,0.09,0.05
-0.01,0.09,0.05,-0.01,0.09,0.05
-0.01,0.09,0.04,-0.01,0.09,0.05
-0.01,0.09,0.05,-0.01,0.09,0.05
-0.01,0.09,0.05,-0.01,0.09,0.05
-0.00,0.09,0.05,-0.01,0.09,0.04
-0.01,0.09,0.05,-0.01,0.09,0.05
-0.01,0.09,0.05,-0.01,0.09,0.05
-0.01,0.09,0.05,-0.01,0.09,0.05
-0.01,0.09,0.05,-0.01,0.09,0.05
-0.01,0.09,0.04,-0.01,0.09,0.05
-0.01,0.09,0.05,-0.01,0.08,0.05
-0.01,0.09,0.04,-0.01,0.09,0.05
-0.00,0.09,0.05,-0.01,0.09,0.04
-0.00,0.09,0.05,-0.00,0.09,0.05
-0.00,0.09,0.05,-0.00,0.09,0.05
-0.00,0.09,0.05,-0.00,0.08,0.05
-0.00,0.09,0.05,-0.01,0.09,0.05
-0.01,0.09,0.05,-0.01,0.09,0.05
-0.01,0.09,0.05,-0.01,0.09,0.05
-0.01,0.09,0.04,-0.01,0.09,0.04
-0.01,0.09,0.05,-0.01,0.09,0.04
-0.01,0.09,0.05,-0.01,0.09,0.05
-0.01,0.09,0.05,-0.01,0.09,0.05
-0.01,0.09,0.05,-0.01,0.08,0.05
-0.01,0.08,0.05,-0.01,0.09,0.05
-0.01,0.09,0.05,-0.01,0.09,0.05
-0.00,0.09,0.05,-0.00,0.09,0.05
-0.00,0.09,0.05,-0.01,0.09,0.05
-0.00,0.09,0.05,-0.01,0.09,0.05
-0.01,0.09,0.05,-0.01,0.09,0.05
-0.01,0.09,0.05,-0.01,0.09,0.05
-0.01,0.09,0.05,-0.01,0.09,0.05
-0.01,0.09,0.05,-0.01,0.09,0.05
-0.01,0.09,0.05,-0.01,0.09,0.05
-0.01,0.09,0.05,-0.01,0.09,0.05
-0.01,0.09,0.05,-0.01,0.08,0.05
-0.01,0.08,0.05,-0.01,0.08,0.05
-0.01,0.09,0.05,-0.01,0.08,0.05
-0.01,0.09,0.05,-0.01,0.08,0.05
-0.01,0.09,0.05,-0.01,0.09,0.05
-0.01,0.09,0.05,-0.01,0.09,0.04
-0.01,0.08,0.05,-0.01,0.09,0.04
-0.01,0.09,0.05,-0.01,0.09,0.05
-0.01,0.09,0.05,-0.01,0.09,0.05
-0.01,0.09,0.05,-0.01,0.09,0.05
-0.01,0.09,0.05,-0.01,0.08,0.04
-0.01,0.08,0.04,-0.01,0.08,0.05
-0.01,0.08,0.05,-0.01,0.08,0.05
-0.01,0.09,0.05,-0.01,0.09,0.05
-0.01,0.09,0.05,-0.01,0.09,0.05
-0.01,0.09,0.05,-0.01,0.09,0.05
-0.01,0.09,0.05,-0.01,0.08,0.05
-0.01,0.09,0.05,-0.01,0.09,0.05
-0.01,0.08,0.05,-0.00,0.08,0.06
-0.01,0.09,0.05,-0.01,0.09,0.05
-0.01,0.09,0.05,-0.00,0.09,0.05
-0.00,0.09,0.05,-0.00,0.09,0.05
-0.00,0.09,0.05,-0.00,0.08,0.05
-0.00,0.08,0.05,-0.00,0.09,0.05
-0.00,0.09,0.05,-0.01,0.09,0.05
-0.01,0.09,0.05,-0.01,0.09,0.05
-0.01,0.09,0.06,-0.01,0.09,0.06
-0.01,0.09,0.05,-0.01,0.08,0.05
-0.06,0.10,0.04,0.01,0.04,0.06
0.00,0.04,0.05,-0.01,0.04,0.05
-0.01,0.09,0.05,-0.01,0.09,0.05
-0.02,0.11,0.05,-0.01,0.10,0.05
-0.02,0.09,0.05,-0.01,0.08,0.05
-0.01,0.08,0.05,-0.01,0.08,0.05
-0.01,0.08,0.05,-0.01,0.08,0.05
-0.01,0.08,0.05,-0.01,0.09,0.05
-0.01,0.09,0.04,-0.01,0.08,0.05
-0.01,0.09,0.05,-0.01,0.09,0.05
-0.01,0.09,0.05,-0.01,0.09,0.04
-0.01,0.09,0.05,-0.00,0.09,0.05
-0.00,0.09,0.05,0.00,0.08,0.05
-0.00,0.08,0.05,-0.00,0.09,0.04
-0.00,0.08,0.05,-0.01,0.09,0.04
-0.01,0.08,0.04,-0.01,0.09,0.04
-0.01,0.08,0.04,-0.02,0.09,0.05
-0.01,0.10,0.05,-0.01,0.10,0.05
-0.00,0.10,0.05,0.00,0.09,0.05
0.00,0.08,0.05,0.00,0.07,0.05
0.00,0.07,0.05,0.00,0.07,0.05
-0.00,0.08,0.05,-0.01,0.09,0.05
-0.01,0.10,0.04,-0.01,0.10,0.05
-0.00,0.10,0.04,-0.00,0.09,0.05
-0.01,0.08,0.04,-0.00,0.08,0.04
-0.01,0.08,0.05,-0.01,0.08,0.04
-0.01,0.09,0.04,-0.01,0.09,0.04
-0.01,0.09,0.05,-0.00,0.09,0.04
-0.00,0.09,0.05,-0.00,0.09,0.05
-0.00,0.09,0.05,-0.00,0.09,0.05
-0.00,0.09,0.05,-0.00,0.09,0.05
0.00,0.09,0.05,0.00,0.09,0.05
-0.00,0.08,0.05,-0.00,0.09,0.05
-0.01,0.09,0.05,-0.01,0.09,0.05
-0.01,0.09,0.05,-0.01,0.09,0.05
-0.01,0.09,0.04,-0.01,0.08,0.05
-0.01,0.08,0.04,-0.01,0.08,0.05
-0.01,0.09,0.04,-0.01,0.09,0.04
-0.01,0.09,0.04,-0.01,0.09,0.05
-0.01,0.09,0.05,-0.01,0.09,0.05
-0.01,0.09,0.05,-0.01,0.09,0.05
-0.01,0.09,0.05,-0.01,0.09,0.05
-0.00,0.09,0.05,-0.01,0.09,0.05
-0.00,0.09,0.05,-0.00,0.09,0.05
-0.00,0.09,0.05,-0.00,0.09,0.05
-0.00,0.08,0.05,-0.01,0.09,0.05
-0.01,0.09,0.05,-0.01,0.08,0.05
-0.00,0.09,0.05,-0.01,0.09,0.05
-0.01,0.09,0.04,-0.01,0.09,0.04
-0.01,0.09,0.05,-0.01,0.09,0.05
-0.01,0.09,0.05,-0.01,0.09,0.05
-0.00,0.09,0.05,-0.01,0.09,0.05
-0.01,0.09,0.05,-0.01,0.09,0.05
-0.00,0.09,0.05,-0.01,0.08,0.05
-0.01,0.09,0.05,-0.01,0.09,0.05
-0.00,0.09,0.05,-0.00,0.09,0.05
-0.00,0.09,0.05,-0.01,0.09,0.05
-0.00,0.09,0.05,-0.00,0.09,0.05
-0.00,0.09,0.05,-0.01,0.09,0.05
-0.01,0.09,0.05,-0.01,0.09,0.05
-0.00,0.09,0.05,-0.01,0.09,0.05
-0.01,0.09,0.04,-0.01,0.09,0.05
-0.00,0.09,0.05,-0.01,0.09,0.05
-0.01,0.09,0.05,-0.01,0.09,0.05
-0.01,0.09,0.05,-0.00,0.09,0.04
-0.00,0.08,0.05,-0.01,0.09,0.05
-0.01,0.09,0.05,-0.01,0.09,0.05
-0.01,0.09,0.05,-0.00,0.09,0.05
-0.00,0.09,0.05,-0.01,0.09,0.04
-0.01,0.09,0.05,-0.00,0.09,0.05
-0.00,0.09,0.05,-0.01,0.09,0.04
-0.01,0.09,0.05,-0.01,0.09,0.05
-0.01,0.09,0.05,-0.01,0.09,0.05
-0.00,0.09,0.05,-0.00,0.09,0.05
-0.00,0.09,0.05,-0.00,0.09,0.05
-0.00,0.09,0.05,-0.00,0.09,0.05
0.00,0.09,0.05,-0.00,0.09,0.05
-0.00,0.09,0.05,0.00,0.09,0.05
-0.00,0.09,0.05,-0.00,0.09,0.05
-0.00,0.09,0.05,-0.00,0.09,0.05
0.00,0.09,0.05,-0.00,0.09,0.05
-0.00,0.09,0.05,-0.00,0.09,0.05
-0.00,0.09,0.05,-0.01,0.09,0.05
-0.01,0.09,0.05,-0.01,0.09,0.05
-0.01,0.09,0.05,-0.01,0.09,0.05
-0.01,0.09,0.04,-0.01,0.08,0.04
-0.01,0.09,0.04,-0.02,0.08,0.04
-0.02,0.09,0.04,-0.01,0.09,0.04
-0.01,0.09,0.04,-0.01,0.09,0.04
-0.01,0.09,0.04,-0.01,0.09,0.04
-0.01,0.09,0.05,-0.00,0.09,0.05
-0.01,0.09,0.05,-0.00,0.09,0.05
-0.00,0.09,0.05,-0.00,0.09,0.05
-0.00,0.09,0.05,0.00,0.09,0.05
-0.00,0.09,0.05,-0.01,0.09,0.05
-0.00,0.09,0.05,-0.00,0.09,0.05
-0.01,0.09,0.05,-0.01,0.09,0.05
-0.01,0.09,0.05,-0.01,0.08,0.05
-0.01,0.09,0.05,-0.01,0.09,0.05
-0.01,0.09,0.05,-0.01,0.09,0.05
-0.01,0.08,0.05,-0.01,0.08,0.05
-0.01,0.09,0.05,-0.01,0.09,0.05
-0.01,0.09,0.05,-0.01,0.09,0.05
-0.01,0.08,0.05,-0.01,0.08,0.04
-0.01,0.09,0.05,-0.01,0.09,0.05
-0.01,0.09,0.05,-0.01,0.09,0.05
-0.01,0.09,0.04,-0.01,0.09,0.05
-0.01,0.09,0.05,-0.00,0.09,0.05
-0.01,0.09,0.05,-0.00,0.09,0.05
-0.01,0.09,0.05,-0.01,0.09,0.05
-0.00,0.09,0.05,-0.01,0.09,0.05
-0.00,0.09,0.05,-0.01,0.09,0.05
-0.01,0.09,0.05,-0.01,0.09,0.05
-0.01,0.09,0.05,-0.00,0.09,0.04
-0.00,0.09,0.05,-0.01,0.09,0.05
-0.01,0.09,0.05,-0.01,0.09,0.05
-0.01,0.09,0.05,-0.01,0.09,0.05
-0.01,0.09,0.05,-0.01,0.09,0.05
-0.01,0.09,0.05,-0.01,0.09,0.05
-0.01,0.09,0.05,-0.01,0.09,0.05
-0.01,0.09,0.05,-0.01,0.09,0.05
-0.01,0.09,0.05,-0.01,0.09,0.05
-0.01,0.09,0.04,-0.00,0.09,0.05
-0.00,0.09,0.05,-0.01,0.09,0.05
-0.01,0.09,0.05,-0.00,0.09,0.05
-0.01,0.09,0.05,-0.00,0.09,0.05
-0.00,0.09,0.05,-0.00,0.09,0.05
-0.00,0.09,0.05,-0.00,0.09,0.05
-0.00,0.09,0.05,-0.00,0.09,0.05
-0.01,0.09,0.05,-0.01,0.09,0.04
-0.01,0.09,0.05,-0.01,0.09,0.05
-0.01,0.09,0.05,-0.01,0.09,0.05
-0.01,0.09,0.05,-0.00,0.08,0.05
-0.01,0.09,0.05,-0.01,0.09,0.05
-0.01,0.09,0.05,-0.01,0.09,0.05
-0.01,0.09,0.05,-0.01,0.09,0.05
-0.01,0.08,0.05,-0.01,0.09,0.05
-0.01,0.09,0.05,-0.00,0.09,0.04
-0.01,0.09,0.04,-0.00,0.09,0.04
-0.00,0.09,0.05,-0.00,0.09,0.05
-0.01,0.09,0.05,-0.00,0.09,0.05
-0.01,0.09,0.04,-0.00,0.09,0.05
-0.01,0.09,0.04,-0.01,0.09,0.05
-0.01,0.09,0.04,-0.00,0.09,0.05
-0.01,0.09,0.05,-0.01,0.09,0.05
-0.00,0.09,0.05,-0.00,0.09,0.05
-0.01,0.09,0.05,-0.01,0.09,0.05
-0.01,0.09,0.05,-0.00,0.09,0.05
-0.00,0.09,0.05,-0.00,0.09,0.05
-0.00,0.09,0.05,-0.00,0.09,0.05
-0.00,0.09,0.04,0.00,0.09,0.05
0.00,0.09,0.05,-0.00,0.09,0.05
0.00,0.09,0.05,-0.00,0.09,0.05
0.00,0.09,0.05,0.00,0.09,0.05
0.00,0.09,0.05,0.00,0.09,0.05
0.00,0.09,0.05,0.00,0.09,0.05
0.00,0.09,0.05,0.00,0.09,0.05
0.00,0.09,0.05,-0.00,0.09,0.05
-0.00,0.09,0.05,-0.00,0.09,0.05
-0.01,0.09,0.05,-0.00,0.09,0.05
-0.01,0.09,0.05,-0.01,0.09,0.05
-0.01,0.09,0.05,-0.01,0.09,0.04
-0.01,0.09,0.04,-0.01,0.09,0.04
-0.01,0.09,0.04,-0.01,0.09,0.04
-0.01,0.09,0.04,-0.01,0.08,0.04
-0.01,0.09,0.04,-0.01,0.08,0.05
-0.01,0.09,0.04,-0.01,0.09,0.04
-0.01,0.09,0.05,-0.01,0.09,0.05
-0.01,0.08,0.04,-0.01,0.09,0.04
-0.01,0.09,0.04,-0.01,0.09,0.05
-0.01,0.09,0.05,-0.01,0.09,0.05
-0.01,0.09,0.05,-0.01,0.09,0.04
-0.01,0.09,0.04,-0.01,0.09,0.04
-0.00,0.09,0.05,-0.01,0.09,0.05
-0.00,0.09,0.05,-0.01,0.09,0.04
-0.01,0.09,0.04,-0.01,0.09,0.05
-0.01,0.09,0.04,-0.01,0.09,0.04
-0.01,0.08,0.05,-0.01,0.09,0.04
-0.01,0.09,0.04,-0.01,0.09,0.05
-0.01,0.09,0.04,-0.01,0.09,0.05
-0.01,0.09,0.04,-0.01,0.09,0.05
-0.01,0.09,0.05,-0.01,0.09,0.05
-0.01,0.09,0.05,-0.01,0.09,0.05
-0.01,0.08,0.05,-0.01,0.08,0.05
-0.01,0.09,0.04,-0.01,0.09,0.05
-0.01,0.09,0.05,-0.01,0.08,0.04
-0.01,0.08,0.04,-0.01,0.09,0.04
-0.01,0.08,0.04,-0.01,0.09,0.04
-0.01,0.09,0.04,-0.01,0.09,0.04
-0.01,0.09,0.04,-0.01,0.09,0.05
-0.01,0.09,0.05,-0.01,0.09,0.05
-0.00,0.09,0.05,0.00,0.09,0.05
0.00,0.08,0.05,0.00,0.08,0.05
0.00,0.08,0.05,0.00,0.08,0.05
-0.00,0.09,0.05,-0.01,0.09,0.05
-0.01,0.10,0.05,-0.01,0.09,0.05
-0.01,0.09,0.05,-0.01,0.09,0.05
-0.01,0.08,0.04,-0.01,0.08,0.05
-0.01,0.09,0.05,-0.01,0.09,0.05
-0.01,0.09,0.05,-0.01,0.09,0.05
-0.01,0.09,0.05,-0.01,0.09,0.05
-0.01,0.09,0.04,-0.01,0.09,0.05
-0.01,0.08,0.04,-0.01,0.09,0.04
-0.01,0.09,0.05,-0.01,0.09,0.04
-0.01,0.09,0.05,-0.01,0.09,0.04
-0.01,0.09,0.04,-0.01,0.09,0.04
-0.01,0.09,0.04,-0.01,0.09,0.04
-0.01,0.09,0.04,-0.01,0.09,0.04
-0.01,0.09,0.05,-0.01,0.09,0.04
-0.01,0.09,0.05,-0.00,0.09,0.05
0.00,0.09,0.05,0.00,0.09,0.05
0.00,0.09,0.06,0.00,0.09,0.06
0.01,0.09,0.06,0.00,0.09,0.06
0.01,0.09,0.06,0.00,0.09,0.06
0.01,0.10,0.06,0.01,0.10,0.06
0.01,0.10,0.05,0.00,0.09,0.05
0.01,0.09,0.05,0.00,0.08,0.05
-0.00,0.09,0.05,-0.00,0.09,0.04
-0.01,0.09,0.04,-0.01,0.09,0.05
-0.01,0.09,0.05,-0.01,0.09,0.05
-0.02,0.09,0.05,-0.01,0.08,0.05
-0.02,0.08,0.04,-0.02,0.08,0.04
-0.02,0.09,0.04,-0.02,0.08,0.04
-0.02,0.08,0.04,-0.02,0.08,0.04
-0.03,0.07,0.04,-0.03,0.08,0.04
-0.03,0.08,0.04,-0.03,0.08,0.04
-0.03,0.08,0.04,-0.03,0.08,0.03
-0.03,0.08,0.03,-0.03,0.08,0.03
-0.02,0.07,0.04,-0.02,0.08,0.04
-0.01,0.08,0.04,-0.01,0.08,0.04
-0.01,0.09,0.04,-0.01,0.08,0.04
-0.00,0.08,0.04,0.00,0.09,0.05
0.00,0.09,0.05,0.01,0.09,0.05
0.01,0.09,0.06,0.01,0.09,0.06
0.01,0.09,0.06,0.01,0.10,0.06
0.01,0.10,0.06,0.01,0.10,0.06
0.01,0.10,0.06,0.01,0.10,0.06
0.01,0.09,0.06,0.00,0.10,0.06
0.00,0.09,0.06,-0.00,0.09,0.06
-0.00,0.09,0.06,-0.01,0.09,0.05
-0.01,0.09,0.05,-0.02,0.09,0.05
-0.02,0.09,0.05,-0.02,0.09,0.05
-0.02,0.09,0.05,-0.02,0.09,0.05
-0.02,0.09,0.05,-0.03,0.09,0.05
-0.02,0.08,0.05,-0.02,0.08,0.04
-0.02,0.08,0.04,-0.02,0.08,0.05
-0.02,0.09,0.05,-0.01,0.09,0.05
-0.01,0.09,0.05,-0.01,0.09,0.05
-0.00,0.09,0.05,0.00,0.10,0.05
0.00,0.09,0.05,0.00,0.09,0.05
0.01,0.09,0.05,0.01,0.09,0.05
0.01,0.09,0.05,0.01,0.09,0.05
0.01,0.09,0.04,0.01,0.09,0.05
0.01,0.09,0.05,0.01,0.09,0.05
0.01,0.09,0.05,0.01,0.09,0.05
0.00,0.09,0.05,-0.00,0.09,0.05
-0.00,0.09,0.04,-0.01,0.09,0.05
-0.01,0.08,0.05,-0.01,0.08,0.05
-0.02,0.08,0.05,-0.02,0.08,0.05
-0.02,0.08,0.04,-0.02,0.08,0.05
-0.02,0.08,0.05,-0.02,0.09,0.05
-0.02,0.09,0.04,-0.02,0.09,0.05
-0.02,0.09,0.05,-0.02,0.09,0.05
-0.01,0.08,0.05,-0.01,0.08,0.05
-0.01,0.09,0.05,-0.00,0.09,0.05
0.00,0.10,0.05,0.00,0.09,0.05
0.01,0.09,0.04,0.01,0.09,0.05
0.01,0.09,0.05,0.01,0.09,0.05
0.01,0.09,0.05,0.01,0.09,0.05
0.01,0.09,0.05,0.01,0.09,0.05
0.01,0.09,0.04,0.00,0.09,0.04
-0.00,0.08,0.04,-0.01,0.08,0.04
-0.01,0.08,0.04,-0.02,0.08,0.04
-0.03,0.08,0.03,-0.03,0.07,0.04
-0.03,0.08,0.04,-0.04,0.08,0.04
-0.03,0.08,0.04,-0.03,0.08,0.05
-0.03,0.08,0.05,-0.03,0.08,0.05
-0.03,0.08,0.05,-0.03,0.08,0.05
-0.03,0.08,0.05,-0.02,0.08,0.06
-0.02,0.08,0.06,-0.02,0.08,0.05
-0.04,0.08,0.03,-0.00,0.04,0.05
-0.02,0.07,0.05,-0.01,0.07,0.05
-0.02,0.09,0.05,-0.01,0.10,0.05
-0.01,0.09,0.04,-0.01,0.09,0.04
-0.01,0.09,0.04,-0.01,0.07,0.04
-0.01,0.09,0.04,-0.01,0.09,0.04
-0.00,0.09,0.04,-0.00,0.09,0.04
-0.00,0.10,0.04,-0.01,0.09,0.04
-0.01,0.09,0.05,-0.00,0.10,0.05
-0.00,0.11,0.05,-0.00,0.11,0.05
-0.01,0.11,0.05,-0.01,0.11,0.05
-0.01,0.11,0.05,-0.01,0.11,0.05
-0.01,0.10,0.05,-0.01,0.09,0.05
-0.01,0.09,0.05,-0.01,0.09,0.04
-0.02,0.09,0.05,-0.02,0.09,0.04
-0.02,0.09,0.04,-0.02,0.09,0.04
-0.02,0.09,0.04,-0.01,0.08,0.04
-0.01,0.09,0.04,-0.01,0.09,0.05
-0.01,0.09,0.05,-0.01,0.11,0.04
-0.01,0.09,0.05,0.00,0.08,0.05
0.00,0.08,0.05,0.00,0.09,0.05
0.01,0.09,0.05,0.00,0.09,0.05
0.00,0.09,0.05,0.01,0.09,0.05
0.00,0.09,0.05,0.00,0.09,0.05
0.00,0.09,0.05,-0.00,0.10,0.05
0.00,0.09,0.05,0.00,0.09,0.05
-0.00,0.09,0.05,-0.00,0.08,0.05
-0.00,0.09,0.05,-0.00,0.09,0.04
-0.00,0.09,0.05,-0.00,0.09,0.05
-0.01,0.09,0.04,-0.01,0.09,0.05
-0.01,0.09,0.04,-0.01,0.09,0.05
-0.01,0.09,0.04,-0.01,0.09,0.04
-0.01,0.09,0.05,-0.01,0.09,0.04
-0.00,0.08,0.04,-0.00,0.09,0.05
-0.01,0.09,0.05,-0.01,0.09,0.05
-0.00,0.09,0.05,-0.00,0.08,0.05
-0.00,0.09,0.05,-0.00,0.09,0.05
-0.00,0.09,0.05,-0.00,0.09,0.05
0.00,0.08,0.05,-0.00,0.09,0.05
-0.01,0.09,0.05,-0.00,0.09,0.05
-0.00,0.09,0.05,-0.00,0.09,0.05
-0.01,0.09,0.04,-0.01,0.09,0.05
-0.01,0.09,0.05,-0.00,0.09,0.05
-0.01,0.09,0.05,-0.01,0.09,0.05
-0.01,0.09,0.05,-0.00,0.09,0.05
-0.01,0.09,0.05,-0.00,0.09,0.05
-0.01,0.09,0.05,-0.01,0.09,0.05
-0.00,0.09,0.05,-0.01,0.09,0.05
-0.01,0.09,0.05,-0.00,0.09,0.05
-0.01,0.09,0.05,-0.00,0.09,0.05
-0.00,0.09,0.05,-0.00,0.09,0.05
-0.01,0.09,0.05,-0.01,0.09,0.05
-0.00,0.09,0.04,-0.01,0.09,0.04
-0.01,0.08,0.05,-0.01,0.08,0.04
-0.01,0.09,0.04,-0.00,0.09,0.05
-0.01,0.09,0.05,-0.00,0.09,0.05
-0.00,0.09,0.05,0.00,0.09,0.05
-0.00,0.09,0.05,-0.00,0.09,0.05
-0.00,0.09,0.05,-0.01,0.09,0.05
-0.01,0.08,0.05,-0.00,0.09,0.05
-0.01,0.09,0.05,-0.01,0.09,0.05
-0.01,0.09,0.05,-0.01,0.09,0.05
-0.01,0.09,0.05,-0.01,0.09,0.05
-0.01,0.09,0.04,-0.01,0.08,0.05
-0.01,0.09,0.05,-0.01,0.09,0.05
-0.01,0.09,0.05,-0.01,0.09,0.05
-0.01,0.09,0.04,-0.01,0.09,0.04
-0.01,0.09,0.05,-0.01,0.09,0.05
-0.01,0.09,0.04,-0.01,0.09,0.05
-0.01,0.09,0.05,-0.01,0.09,0.04
-0.01,0.09,0.05,-0.01,0.09,0.04
-0.01,0.09,0.05,-0.01,0.09,0.05
-0.00,0.09,0.04,-0.01,0.09,0.05
-0.01,0.09,0.05,-0.01,0.09,0.05
-0.01,0.09,0.05,-0.01,0.09,0.05
-0.01,0.08,0.05,-0.01,0.09,0.05
-0.01,0.09,0.04,-0.01,0.09,0.04
-0.01,0.09,0.05,-0.01,0.09,0.04
-0.01,0.09,0.04,-0.01,0.09,0.05
-0.01,0.09,0.05,-0.01,0.08,0.05
-0.01,0.09,0.05,-0.01,0.09,0.05
-0.01,0.08,0.05,-0.01,0.09,0.04
-0.01,0.09,0.05,-0.01,0.09,0.04
-0.01,0.08,0.04,-0.01,0.09,0.04
-0.01,0.08,0.04,-0.01,0.09,0.04
-0.01,0.09,0.04,-0.01,0.09,0.04
-0.01,0.09,0.05,-0.01,0.09,0.05
-0.01,0.08,0.05,-0.01,0.09,0.05
-0.01,0.09,0.05,-0.01,0.09,0.05
-0.01,0.09,0.05,-0.01,0.08,0.05
-0.01,0.09,0.05,-0.01,0.09,0.05
-0.00,0.08,0.05,-0.00,0.09,0.05
-0.00,0.09,0.05,-0.00,0.09,0.04
-0.00,0.09,0.05,-0.00,0.09,0.05
-0.01,0.09,0.05,-0.00,0.09,0.04
-0.01,0.09,0.05,-0.01,0.09,0.04
-0.00,0.09,0.04,-0.00,0.09,0.05
-0.00,0.09,0.05,-0.01,0.09,0.05
-0.01,0.09,0.05,-0.00,0.09,0.05
-0.01,0.09,0.05,-0.01,0.09,0.05
-0.00,0.09,0.05,-0.01,0.09,0.05
-0.01,0.09,0.05,-0.01,0.09,0.05
-0.01,0.09,0.05,-0.01,0.09,0.05
-0.01,0.09,0.05,-0.01,0.09,0.05
-0.01,0.09,0.05,-0.01,0.09,0.05
-0.01,0.09,0.05,-0.00,0.09,0.05
-0.00,0.09,0.05,-0.00,0.09,0.05
-0.00,0.09,0.05,-0.00,0.09,0.04
-0.00,0.09,0.05,-0.00,0.09,0.05
-0.00,0.09,0.05,-0.00,0.09,0.04
-0.00,0.09,0.05,-0.00,0.09,0.05
-0.00,0.09,0.05,-0.00,0.09,0.05
-0.01,0.09,0.05,-0.00,0.09,0.04
-0.01,0.09,0.05,-0.01,0.08,0.05
-0.01,0.09,0.04,-0.01,0.09,0.05
-0.01,0.09,0.05,-0.00,0.09,0.05
-0.01,0.09,0.05,-0.01,0.09,0.04
-0.00,0.08,0.05,-0.00,0.09,0.05
-0.01,0.09,0.04,-0.01,0.09,0.05
-0.01,0.09,0.05,-0.01,0.09,0.05
-0.01,0.09,0.05,-0.01,0.09,0.05
-0.01,0.09,0.05,-0.01,0.09,0.04
-0.01,0.09,0.05,-0.01,0.09,0.05
-0.01,0.09,0.04,-0.00,0.08,0.04
-0.00,0.09,0.04,-0.00,0.08,0.04
0.00,0.09,0.04,-0.00,0.09,0.04
-0.00,0.09,0.05,-0.00,0.09,0.05
-0.00,0.09,0.05,-0.01,0.09,0.05
-0.01,0.09,0.05,-0.01,0.09,0.04
-0.01,0.08,0.04,-0.00,0.08,0.05
-0.01,0.08,0.05,-0.01,0.08,0.04
-0.01,0.08,0.05,-0.01,0.08,0.04
-0.01,0.08,0.05,-0.01,0.09,0.05
-0.00,0.08,0.04,-0.01,0.08,0.05
-0.01,0.08,0.04,-0.01,0.08,0.04
-0.01,0.08,0.05,-0.01,0.08,0.05
-0.01,0.08,0.05,-0.01,0.08,0.05
-0.01,0.09,0.05,-0.01,0.08,0.05
-0.00,0.09,0.05,-0.00,0.09,0.04
-0.00,0.09,0.05,-0.00,0.09,0.05
-0.01,0.09,0.05,-0.01,0.09,0.05
-0.01,0.09,0.05,-0.01,0.09,0.05
-0.01,0.09,0.05,-0.01,0.09,0.05
-0.01,0.09,0.05,-0.01,0.09,0.05
-0.01,0.09,0.05,-0.01,0.09,0.05
-0.01,0.09,0.05,-0.01,0.09,0.05
-0.01,0.09,0.05,-0.01,0.09,0.05
-0.01,0.09,0.05,-0.01,0.09,0.05
-0.01,0.09,0.05,-0.01,0.09,0.05
-0.01,0.09,0.05,-0.01,0.09,0.05
-0.01,0.09,0.04,-0.01,0.09,0.05
-0.01,0.09,0.05,-0.00,0.09,0.05
-0.01,0.09,0.05,-0.00,0.09,0.05
-0.01,0.09,0.05,-0.01,0.09,0.05
-0.00,0.09,0.05,-0.00,0.08,0.05
-0.00,0.08,0.05,-0.00,0.09,0.05
-0.01,0.09,0.05,0.00,0.09,0.05
0.00,0.08,0.05,-0.01,0.09,0.05
-0.01,0.09,0.05,-0.01,0.09,0.05
-0.01,0.09,0.05,-0.01,0.09,0.05
-0.01,0.09,0.05,-0.01,0.09,0.05
-0.01,0.09,0.05,-0.01,0.09,0.05
-0.01,0.08,0.05,-0.01,0.08,0.04
-0.01,0.09,0.05,-0.01,0.09,0.05
-0.01,0.09,0.05,-0.01,0.09,0.05
-0.01,0.09,0.05,-0.01,0.08,0.05
-0.01,0.09,0.05,-0.01,0.09,0.05
-0.01,0.09,0.05,-0.00,0.09,0.05
-0.01,0.09,0.05,-0.01,0.09,0.05
-0.01,0.09,0.05,-0.00,0.09,0.05
-0.01,0.09,0.05,-0.00,0.09,0.05
-0.01,0.09,0.05,-0.01,0.09,0.04
-0.01,0.09,0.05,-0.00,0.09,0.05
-0.01,0.08,0.05,-0.01,0.09,0.05
-0.00,0.09,0.05,-0.01,0.09,0.05
-0.01,0.08,0.05,-0.01,0.08,0.05
-0.01,0.09,0.05,-0.01,0.09,0.05
-0.01,0.09,0.05,-0.01,0.09,0.05
-0.01,0.09,0.05,-0.01,0.09,0.05
-0.01,0.09,0.05,-0.01,0.09,0.05
-0.01,0.09,0.05,-0.00,0.09,0.05
-0.00,0.09,0.05,-0.01,0.09,0.05
-0.01,0.09,0.05,-0.01,0.09,0.04
-0.01,0.09,0.05,-0.01,0.09,0.04
-0.01,0.08,0.04,-0.01,0.09,0.05
-0.01,0.09,0.05,-0.01,0.09,0.05
-0.00,0.09,0.05,-0.01,0.09,0.05
-0.01,0.09,0.05,-0.01,0.09,0.05
-0.01,0.09,0.05,-0.01,0.09,0.05
-0.01,0.09,0.05,-0.01,0.09,0.05
-0.01,0.08,0.05,-0.01,0.09,0.05
-0.01,0.09,0.04,-0.01,0.09,0.05
-0.01,0.09,0.05,-0.01,0.09,0.05
-0.01,0.09,0.05,-0.01,0.09,0.04
-0.01,0.09,0.04,-0.01,0.09,0.05
-0.01,0.09,0.05,-0.01,0.09,0.05
-0.01,0.09,0.05,-0.00,0.08,0.05
-0.00,0.08,0.05,-0.01,0.08,0.05
-0.01,0.09,0.05,-0.00,0.09,0.05
-0.01,0.09,0.05,-0.01,0.09,0.05
-0.01,0.09,0.05,-0.01,0.09,0.05
-0.00,0.09,0.05,-0.00,0.09,0.05
-0.01,0.09,0.05,-0.00,0.09,0.05
-0.01,0.09,0.05,-0.01,0.09,0.05
-0.01,0.09,0.04,-0.01,0.09,0.05
-0.01,0.09,0.05,-0.01,0.09,0.05
-0.01,0.09,0.04,-0.01,0.09,0.05
-0.01,0.09,0.04,-0.01,0.09,0.05
-0.01,0.09,0.04,-0.01,0.09,0.05
-0.01,0.09,0.05,-0.01,0.09,0.05
-0.01,0.09,0.05,-0.01,0.09,0.05
-0.01,0.09,0.05,-0.00,0.09,0.05
-0.00,0.09,0.05,-0.01,0.09,0.05
-0.00,0.09,0.05,-0.00,0.09,0.05
-0.01,0.09,0.05,-0.01,0.09,0.05
-0.00,0.09,0.05,-0.01,0.09,0.05
-0.01,0.09,0.05,-0.01,0.09,0.05
-0.01,0.09,0.05,-0.01,0.09,0.05
-0.01,0.09,0.05,-0.01,0.09,0.05
-0.01,0.09,0.05,-0.01,0.09,0.05
-0.01,0.09,0.05,-0.01,0.09,0.05
-0.01,0.09,0.05,-0.01,0.09,0.05
-0.01,0.09,0.05,-0.00,0.09,0.05
-0.01,0.09,0.05,-0.01,0.09,0.05
-0.01,0.09,0.05,-0.00,0.09,0.05
-0.00,0.09,0.05,-0.01,0.09,0.05
-0.00,0.09,0.05,-0.01,0.09,0.05
-0.01,0.09,0.05,-0.01,0.09,0.05
-0.01,0.09,0.05,-0.01,0.09,0.05
-0.01,0.09,0.05,-0.01,0.09,0.05
-0.01,0.09,0.04,-0.01,0.09,0.04
-0.01,0.09,0.05,-0.01,0.09,0.05
-0.01,0.09,0.05,-0.01,0.09,0.05
-0.01,0.09,0.05,-0.01,0.09,0.05
-0.01,0.09,0.05,-0.01,0.09,0.05
-0.01,0.09,0.05,-0.01,0.09,0.05
-0.00,0.09,0.05,-0.01,0.09,0.05
-0.00,0.09,0.05,-0.01,0.09,0.05
-0.01,0.08,0.05,-0.00,0.09,0.04
-0.01,0.09,0.05,-0.01,0.09,0.05
-0.01,0.09,0.05,-0.01,0.09,0.05
-0.01,0.09,0.05,-0.01,0.09,0.05
-0.01,0.09,0.05,-0.01,0.09,0.05
-0.00,0.09,0.05,-0.01,0.09,0.05
-0.01,0.09,0.05,-0.01,0.09,0.05
-0.00,0.09,0.05,-0.01,0.08,0.05
-0.01,0.09,0.05,-0.01,0.09,0.04
-0.01,0.09,0.05,-0.01,0.09,0.05
-0.01,0.09,0.05,-0.01,0.09,0.04
-0.01,0.09,0.05,-0.01,0.09,0.05
-0.01,0.09,0.05,-0.00,0.09,0.04
-0.01,0.09,0.05,-0.01,0.09,0.05
-0.00,0.09,0.05,-0.01,0.09,0.05
-0.01,0.09,0.05,-0.01,0.08,0.05
-0.01,0.09,0.05,-0.01,0.09,0.05
-0.01,0.09,0.05,-0.01,0.09,0.05
-0.01,0.09,0.05,-0.01,0.08,0.05
-0.01,0.09,0.05,-0.01,0.09,0.05
-0.01,0.09,0.05,-0.00,0.09,0.05
-0.01,0.09,0.05,-0.01,0.09,0.05
-0.01,0.09,0.05,-0.01,0.09,0.05
-0.01,0.09,0.05,-0.01,0.09,0.05
-0.01,0.09,0.05,-0.01,0.09,0.05
-0.01,0.09,0.05,-0.01,0.09,0.05
-0.01,0.09,0.05,-0.01,0.09,0.05
-0.01,0.09,0.05,-0.01,0.09,0.05
-0.01,0.09,0.05,-0.01,0.09,0.04
-0.01,0.09,0.04,-0.01,0.09,0.05
-0.01,0.09,0.05,-0.00,0.08,0.05
-0.01,0.09,0.04,-0.01,0.09,0.05
-0.00,0.09,0.05,-0.01,0.09,0.05
-0.01,0.09,0.05,-0.01,0.09,0.05
-0.01,0.09,0.05,-0.01,0.09,0.05
-0.01,0.09,0.05,-0.01,0.09,0.04
-0.01,0.09,0.05,-0.01,0.09,0.05
-0.01,0.09,0.05,-0.01,0.09,0.05
-0.01,0.09,0.05,-0.01,0.09,0.05
-0.01,0.09,0.05,-0.01,0.09,0.05
-0.00,0.09,0.05,-0.01,0.09,0.05
-0.00,0.09,0.05,-0.00,0.09,0.05
-0.01,0.09,0.05,-0.01,0.08,0.05
-0.01,0.09,0.04,-0.01,0.09,0.05
-0.01,0.09,0.05,-0.01,0.08,0.05
-0.01,0.09,0.05,-0.01,0.09,0.05
-0.01,0.09,0.04,-0.01,0.09,0.05
-0.01,0.09,0.05,-0.01,0.09,0.05
-0.01,0.08,0.05,-0.01,0.09,0.05
-0.00,0.09,0.05,-0.01,0.09,0.04
-0.01,0.09,0.05,-0.01,0.09,0.05
-0.01,0.08,0.05,-0.01,0.09,0.05
-0.01,0.09,0.05,-0.01,0.09,0.05
-0.01,0.09,0.05,-0.01,0.09,0.05
-0.01,0.09,0.05,-0.01,0.09,0.05
-0.01,0.09,0.05,-0.01,0.09,0.05
-0.01,0.09,0.05,-0.01,0.09,0.05
-0.01,0.09,0.04,-0.01,0.09,0.05
-0.01,0.09,0.05,-0.01,0.09,0.05
-0.01,0.09,0.05,-0.01,0.09,0.05
-0.01,0.09,0.05,-0.01,0.09,0.04
-0.01,0.09,0.05,-0.01,0.09,0.05
-0.01,0.09,0.04,-0.00,0.09,0.05
-0.01,0.09,0.05,-0.01,0.09,0.05
-0.01,0.09,0.05,-0.01,0.09,0.05
-0.01,0.09,0.05,-0.01,0.09,0.05
-0.00,0.09,0.05,-0.01,0.09,0.05
-0.01,0.09,0.05,-0.01,0.09,0.05
-0.01,0.09,0.05,-0.01,0.09,0.04
-0.01,0.09,0.05,-0.01,0.09,0.05
-0.01,0.09,0.04,-0.00,0.09,0.05
-0.01,0.09,0.05,-0.01,0.09,0.05
-0.00,0.09,0.04,-0.01,0.09,0.05
-0.01,0.09,0.05,-0.01,0.09,0.05
-0.01,0.09,0.05,-0.01,0.09,0.05
-0.01,0.09,0.05,-0.01,0.09,0.05
-0.01,0.09,0.05,-0.01,0.09,0.05
-0.01,0.09,0.05,-0.01,0.09,0.05
-0.00,0.09,0.05,-0.00,0.09,0.05
-0.01,0.08,0.04,-0.01,0.09,0.05
-0.01,0.09,0.05,-0.01,0.09,0.05
-0.01,0.09,0.05,-0.00,0.09,0.05
-0.01,0.09,0.05,-0.01,0.09,0.04
-0.01,0.08,0.05,-0.01,0.09,0.05
-0.01,0.09,0.05,-0.01,0.09,0.05
-0.01,0.09,0.05,-0.00,0.09,0.05
-0.01,0.09,0.05,-0.01,0.09,0.05
-0.01,0.09,0.05,-0.01,0.09,0.05
-0.01,0.09,0.05,-0.01,0.09,0.05
-0.01,0.09,0.05,-0.01,0.09,0.04
-0.01,0.09,0.05,-0.01,0.08,0.05
-0.01,0.09,0.05,-0.01,0.09,0.05
-0.00,0.09,0.04,-0.01,0.09,0.05
-0.01,0.09,0.05,-0.01,0.09,0.05
-0.01,0.09,0.05,-0.01,0.09,0.05
-0.01,0.09,0.05,-0.01,0.08,0.05
-0.01,0.09,0.05,-0.01,0.09,0.05
-0.01,0.09,0.05,-0.01,0.08,0.05
-0.01,0.09,0.04,-0.01,0.09,0.04
-0.01,0.09,0.05,-0.01,0.09,0.05
-0.00,0.09,0.05,-0.01,0.09,0.05
-0.01,0.08,0.04,-0.01,0.09,0.05
-0.01,0.09,0.05,-0.01,0.09,0.05
-0.01,0.09,0.05,-0.01,0.08,0.05
-0.01,0.09,0.05,-0.01,0.08,0.05
-0.01,0.09,0.05,-0.01,0.09,0.05
-0.01,0.09,0.05,-0.01,0.09,0.05
-0.01,0.09,0.05,-0.01,0.09,0.05
-0.00,0.09,0.05,-0.00,0.09,0.05
-0.01,0.09,0.04,-0.01,0.09,0.05
-0.01,0.09,0.05,-0.01,0.09,0.05
-0.01,0.09,0.05,-0.01,0.09,0.05
-0.01,0.09,0.05,-0.01,0.09,0.05
-0.00,0.09,0.05,-0.01,0.09,0.05
-0.01,0.09,0.04,-0.01,0.09,0.05
-0.01,0.09,0.05,-0.01,0.09,0.05
-0.01,0.09,0.04,-0.01,0.09,0.05
-0.01,0.09,0.04,-0.01,0.09,0.05
-0.00,0.09,0.05,-0.01,0.09,0.05
-0.01,0.09,0.05,-0.01,0.09,0.05
-0.01,0.09,0.05,-0.01,0.09,0.05
-0.01,0.09,0.05,-0.01,0.08,0.05
-0.01,0.09,0.05,-0.01,0.09,0.05
-0.01,0.09,0.05,-0.01,0.09,0.05
-0.01,0.09,0.05,-0.01,0.09,0.05
-0.01,0.09,0.05,-0.01,0.09,0.05
-0.01,0.09,0.05,-0.01,0.09,0.05
-0.01,0.09,0.05,-0.01,0.09,0.05
-0.01,0.09,0.05,-0.01,0.09,0.04
-0.01,0.09,0.05,-0.01,0.09,0.05
-0.01,0.09,0.05,-0.01,0.09,0.05
-0.01,0.09,0.05,-0.01,0.08,0.05
-0.01,0.09,0.05,-0.00,0.09,0.05
-0.01,0.09,0.05,-0.00,0.09,0.05
-0.01,0.09,0.05,-0.01,0.09,0.05
-0.01,0.08,0.04,-0.01,0.09,0.05
-0.01,0.09,0.05,-0.01,0.09,0.05
-0.01,0.09,0.05,-0.01,0.09,0.05
-0.01,0.09,0.05,-0.01,0.09,0.05
-0.01,0.09,0.05,-0.01,0.09,0.05
-0.01,0.09,0.05,-0.01,0.09,0.05
-0.01,0.09,0.05,-0.01,0.09,0.05
-0.01,0.09,0.05,-0.01,0.09,0.05
-0.01,0.09,0.05,-0.00,0.09,0.05
-0.01,0.09,0.04,-0.01,0.09,0.05
-0.00,0.09,0.05,-0.01,0.09,0.05
-0.01,0.09,0.05,-0.01,0.09,0.05
-0.00,0.09,0.05,-0.01,0.09,0.05
-0.01,0.09,0.05,-0.01,0.09,0.05
-0.01,0.09,0.05,-0.01,0.09,0.05
-0.01,0.09,0.05,-0.01,0.09,0.05
-0.01,0.09,0.04,-0.01,0.08,0.05
-0.01,0.09,0.05,-0.00,0.09,0.05
-0.01,0.09,0.05,-0.01,0.09,0.05
-0.01,0.09,0.05,-0.01,0.09,0.05
-0.01,0.09,0.05,-0.00,0.09,0.05
-0.01,0.09,0.04,-0.01,0.09,0.05
-0.01,0.09,0.05,-0.01,0.09,0.05
-0.00,0.09,0.05,-0.00,0.09,0.05
-0.01,0.09,0.05,-0.01,0.09,0.05
-0.01,0.09,0.05,-0.01,0.09,0.05
-0.00,0.09,0.05,-0.01,0.09,0.05
-0.01,0.09,0.05,-0.01,0.09,0.05
-0.01,0.09,0.05,-0.01,0.09,0.05
-0.01,0.09,0.05,-0.01,0.09,0.05
-0.01,0.09,0.05,-0.01,0.08,0.05
-0.01,0.09,0.05,-0.01,0.09,0.05
-0.01,0.09,0.04,-0.01,0.09,0.04
-0.01,0.09,0.05,-0.01,0.08,0.05
-0.01,0.09,0.05,-0.01,0.09,0.05
-0.01,0.09,0.05,-0.01,0.09,0.05
-0.01,0.09,0.05,-0.01,0.09,0.05
-0.01,0.09,0.05,-0.01,0.09,0.05
-0.01,0.09,0.05,-0.00,0.09,0.05
-0.01,0.09,0.04,-0.00,0.09,0.05
-0.01,0.08,0.05,-0.01,0.08,0.05
-0.01,0.09,0.04,-0.01,0.08,0.05
-0.01,0.09,0.04,-0.01,0.09,0.05
-0.01,0.09,0.05,-0.01,0.09,0.05
-0.01,0.09,0.05,-0.01,0.08,0.05
-0.01,0.09,0.04,-0.01,0.09,0.05
-0.01,0.08,0.04,-0.01,0.09,0.05
-0.01,0.09,0.05,-0.00,0.09,0.05
-0.01,0.09,0.05,-0.01,0.09,0.05
-0.01,0.09,0.05,-0.01,0.09,0.05
-0.00,0.09,0.05,-0.01,0.09,0.05
-0.01,0.09,0.05,-0.00,0.09,0.05
-0.01,0.09,0.05,-0.01,0.09,0.05
-0.01,0.09,0.05,-0.01,0.09,0.05
-0.01,0.09,0.05,-0.01,0.09,0.05
-0.00,0.09,0.05,-0.01,0.09,0.05
-0.01,0.09,0.04,-0.01,0.09,0.04
-0.01,0.09,0.04,-0.01,0.09,0.05
-0.01,0.08,0.05,-0.01,0.08,0.05
-0.01,0.09,0.04,-0.01,0.09,0.04
-0.01,0.09,0.04,-0.01,0.09,0.05
-0.01,0.09,0.04,-0.01,0.09,0.05
-0.01,0.09,0.05,-0.01,0.09,0.05
-0.01,0.09,0.05,-0.01,0.09,0.05
-0.01,0.09,0.05,-0.01,0.08,0.05
-0.01,0.09,0.05,-0.01,0.09,0.05
-0.01,0.09,0.05,-0.01,0.09,0.05
-0.01,0.08,0.05,-0.01,0.09,0.05
-0.01,0.09,0.05,-0.00,0.09,0.05
-0.01,0.09,0.05,-0.01,0.08,0.04
-0.01,0.09,0.05,-0.01,0.09,0.05
-0.01,0.09,0.05,-0.01,0.08,0.05
-0.01,0.09,0.05,-0.01,0.09,0.05
-0.01,0.09,0.05,-0.00,0.09,0.05
-0.01,0.09,0.05,-0.01,0.09,0.05
-0.01,0.09,0.05,-0.01,0.09,0.05
-0.01,0.09,0.04,-0.01,0.08,0.05
-0.01,0.09,0.05,-0.01,0.08,0.05
-0.01,0.09,0.05,-0.01,0.09,0.05
-0.01,0.09,0.05,-0.01,0.09,0.04
-0.01,0.09,0.05,-0.01,0.09,0.04
-0.01,0.09,0.05,-0.01,0.09,0.05
-0.01,0.09,0.05,-0.01,0.09,0.05
